emg,ax,ay,az,gx,gy,gz,time
5159.0,-0.12,0.02,10.01,0.01,0.01,-0.01,1771668805.539459
20212.0,-0.04,0.03,9.98,0.01,0.02,-0.0,1771668805.53985
17644.0,-0.04,0.03,9.98,0.02,0.01,-0.0,1771668805.540212
2451.0,-0.1,0.07,9.97,0.01,0.01,-0.01,1771668805.540589
11084.0,-0.07,0.0,10.0,0.01,0.01,0.0,1771668805.540949
25174.0,-0.07,0.0,10.0,0.01,0.01,0.0,1771668805.541307
12018.0,-0.1,0.04,9.95,0.01,0.01,-0.01,1771668805.5416892
2039.0,-0.1,0.04,9.95,0.01,0.01,-0.01,1771668805.542038
17083.0,-0.12,0.06,9.99,0.01,0.01,-0.0,1771668805.5423949
21451.0,-0.15,0.05,9.96,0.01,0.01,-0.0,1771668805.5427608
6270.0,-0.15,0.05,9.96,0.01,0.01,-0.01,1771668805.5430112
7981.0,-0.12,0.1,9.94,0.01,0.01,0.0,1771668805.543191
23009.0,-0.12,0.02,9.98,0.01,0.01,-0.0,1771668805.543387
15329.0,-0.12,0.02,9.98,0.01,0.01,0.0,1771668805.543576
758.0,-0.07,-0.0,9.99,0.01,0.01,-0.0,1771668805.5437498
13432.0,-0.16,0.09,10.0,0.01,0.01,-0.01,1771668805.543933
24328.0,-0.16,0.09,10.0,0.01,0.01,-0.0,1771668805.544123
9402.0,-0.09,0.04,10.01,0.01,0.01,0.0,1771668805.544301
4170.0,-0.11,0.09,9.96,0.01,0.01,-0.0,1771668805.544478
19225.0,-0.11,0.09,9.96,0.01,0.01,-0.0,1771668805.544742
18629.0,-0.12,0.02,9.96,0.01,0.01,-0.0,1771668805.5449688
3407.0,-0.1,0.08,9.93,0.01,0.01,-0.0,1771668805.545124
10060.0,-0.1,0.08,9.93,0.01,0.01,-0.0,1771668805.545291
24802.0,-0.11,0.05,9.95,0.01,0.01,-0.0,1771668805.5454552
12913.0,-0.09,0.07,9.98,0.01,0.01,-0.0,1771668805.54561
1273.0,-0.09,0.07,9.98,0.01,0.01,0.0,1771668805.545759
16026.0,-0.1,0.06,9.99,0.01,0.02,-0.0,1771668805.5459242
22415.0,-0.09,0.06,9.96,0.01,0.01,-0.0,1771668805.546079
7257.0,-0.09,0.06,9.96,0.01,0.01,-0.0,1771668805.546231
6995.0,-0.08,0.06,9.96,0.01,0.01,-0.0,1771668805.5463831
21944.0,-0.08,0.06,9.96,0.01,0.01,-0.0,1771668805.5465732
16307.0,-0.07,0.06,9.96,0.01,0.01,0.0,1771668805.546726
1260.0,-0.07,0.04,9.96,0.01,0.01,0.0,1771668805.546878
12494.0,-0.07,0.04,9.96,0.01,0.02,-0.0,1771668805.547049
24919.0,-0.07,0.03,9.96,0.01,0.01,0.0,1771668805.547204
10404.0,-0.18,0.0,9.96,0.01,0.01,0.0,1771668805.5473568
3217.0,-0.18,0.0,9.96,0.02,0.01,-0.0,1771668805.547509
18266.0,-0.08,-0.01,10.01,0.01,0.01,0.0,1771668805.547677
19621.0,-0.11,-0.01,9.97,0.01,0.01,0.0,1771668805.5478332
4410.0,-0.11,-0.01,9.97,0.01,0.01,-0.0,1771668805.54799
9081.0,-0.14,0.04,9.96,0.01,0.01,-0.0,1771668805.54817
24164.0,-0.12,0.01,10.01,0.01,0.01,-0.0,1771668805.548337
13889.0,-0.12,0.01,10.01,0.01,0.01,-0.0,1771668805.5484958
856.0,-0.11,0.07,9.91,0.01,0.01,-0.0,1771668805.54865
15010.0,-0.1,0.05,9.97,0.01,0.01,-0.01,1771668805.5488288
23325.0,-0.1,0.05,9.97,0.01,0.01,-0.0,1771668805.5489678
8217.0,-0.07,0.07,9.97,0.01,0.01,-0.0,1771668805.5491042
5931.0,-0.13,0.04,10.0,0.01,0.01,0.0,1771668805.549249
20948.0,-0.13,0.04,10.0,0.01,0.01,0.0,1771668805.5493948
17404.0,-0.1,0.03,9.99,0.02,0.01,0.0,1771668805.54953
2132.0,-0.09,0.04,10.03,0.01,0.01,0.0,1771668805.5496871
11614.0,-0.09,0.04,10.03,0.01,0.01,-0.0,1771668805.549898
25148.0,-0.11,0.04,9.99,0.01,0.01,-0.0,1771668805.55005
11394.0,-0.11,0.04,9.99,0.01,0.01,-0.0,1771668805.550205
2284.0,-0.1,0.02,9.93,0.01,0.01,-0.0,1771668805.550346
17290.0,-0.12,0.03,9.95,0.01,0.01,0.0,1771668805.550488
20650.0,-0.12,0.03,9.95,0.01,0.01,-0.0,1771668805.550632
5461.0,-0.11,0.02,9.97,0.02,0.02,0.0,1771668805.550883
8251.0,-0.1,0.0,10.0,0.01,0.01,-0.0,1771668805.551195
23282.0,-0.1,0.0,10.0,0.01,0.01,0.0,1771668805.551369
14752.0,-0.13,0.02,9.91,0.01,0.01,-0.0,1771668805.551577
676.0,-0.12,0.05,9.93,0.01,0.01,-0.0,1771668805.551733
13920.0,-0.12,0.05,9.93,0.01,0.01,-0.0,1771668805.551899
24091.0,-0.1,0.03,9.98,0.01,0.01,-0.0,1771668805.552068
9149.0,-0.15,0.0,9.99,0.01,0.01,-0.0,1771668805.5522282
4921.0,-0.15,0.0,9.99,0.01,0.01,0.0,1771668805.55239
20028.0,-0.16,0.03,9.95,0.01,0.01,0.0,1771668805.552551
18529.0,-0.06,0.03,9.98,0.01,0.01,0.0,1771668805.552711
3167.0,-0.06,0.03,9.98,0.01,0.01,0.0,1771668805.552842
10722.0,-0.06,0.08,10.0,0.01,0.01,-0.0,1771668805.552984
25035.0,-0.11,0.05,9.97,0.01,0.01,-0.0,1771668805.553247
12396.0,-0.11,0.05,9.97,0.01,0.01,-0.0,1771668805.553442
1535.0,-0.08,0.11,9.93,0.01,0.01,0.0,1771668805.5535738
16369.0,-0.12,0.04,9.93,0.01,0.01,-0.0,1771668805.553712
21688.0,-0.12,0.04,9.93,0.01,0.01,-0.0,1771668805.553857
6465.0,-0.1,0.04,9.98,0.01,0.01,0.0,1771668805.553996
7211.0,-0.1,0.04,9.98,0.01,0.01,0.0,1771668805.5541272
22223.0,-0.06,0.03,9.94,0.01,0.01,-0.0,1771668805.554324
15637.0,-0.06,0.1,9.99,0.01,0.01,0.01,1771668805.554458
951.0,-0.06,0.1,9.99,0.01,0.02,-0.0,1771668805.554589
13006.0,-0.11,0.05,9.96,0.01,0.01,-0.0,1771668805.554736
24792.0,-0.08,0.05,9.99,0.02,0.01,-0.01,1771668805.55488
10229.0,-0.08,0.05,9.99,0.01,0.01,-0.0,1771668805.555016
3959.0,-0.17,0.02,10.0,0.01,0.01,-0.0,1771668805.5551848
19041.0,-0.1,0.04,9.96,0.01,0.02,-0.0,1771668805.55533
19463.0,-0.1,0.04,9.96,0.02,0.01,-0.0,1771668805.555479
4193.0,-0.1,0.06,9.96,0.01,0.02,0.0,1771668805.555608
9765.0,-0.09,0.03,10.04,0.01,0.01,-0.0,1771668805.555753
24569.0,-0.09,0.03,10.04,0.01,0.01,-0.0,1771668805.555894
13450.0,-0.05,0.04,9.94,0.01,0.01,0.0,1771668805.5560288
960.0,-0.11,0.02,10.01,0.01,0.01,-0.0,1771668805.556172
15394.0,-0.11,0.02,10.01,0.01,0.01,0.0,1771668805.5563169
22684.0,-0.09,0.04,9.96,0.01,0.01,0.0,1771668805.55645
7409.0,-0.12,0.06,9.97,0.01,0.01,-0.0,1771668805.556585
6145.0,-0.12,0.06,9.97,0.02,0.01,-0.0,1771668805.5567229
21194.0,-0.08,0.03,9.96,0.01,0.01,-0.0,1771668805.5568588
16633.0,-0.1,0.08,9.98,0.01,0.01,-0.0,1771668805.557036
1579.0,-0.1,0.08,9.98,0.01,0.01,-0.0,1771668805.55729
12002.0,-0.09,0.09,9.98,0.02,0.01,0.0,1771668805.557463
25110.0,-0.09,0.09,9.98,0.01,0.01,0.0,1771668805.557777
11062.0,-0.14,0.0,9.97,0.02,0.01,-0.0,1771668805.558027
2896.0,-0.11,0.02,9.96,0.02,0.01,-0.0,1771668805.558292
18093.0,-0.11,0.02,9.96,0.01,0.02,-0.0,1771668805.558434
20583.0,-0.09,0.07,9.94,0.02,0.01,-0.0,1771668805.558572
5357.0,-0.1,0.05,9.97,0.01,0.01,-0.0,1771668805.5587032
8901.0,-0.1,0.05,9.97,0.01,0.01,-0.0,1771668805.558835
23901.0,-0.11,0.05,9.92,0.01,0.02,-0.0,1771668805.558956
14441.0,-0.09,0.05,9.95,0.01,0.01,0.0,1771668805.559072
700.0,-0.09,0.05,9.95,0.01,0.01,0.0,1771668805.5591931
14337.0,-0.06,0.03,9.94,0.01,0.02,-0.0,1771668805.559315
23641.0,-0.05,0.04,9.96,0.01,0.01,-0.0,1771668805.5594518
8534.0,-0.05,0.04,9.96,0.02,0.01,-0.0,1771668805.559575
5215.0,-0.07,0.09,10.0,0.01,0.01,0.0,1771668805.559691
20300.0,-0.09,0.06,9.95,0.01,0.01,0.01,1771668805.559805
17842.0,-0.09,0.06,9.95,0.01,0.01,-0.0,1771668805.559925
2551.0,-0.08,0.07,9.99,0.01,0.01,-0.0,1771668805.560048
11139.0,-0.13,0.05,9.98,0.01,0.01,-0.0,1771668805.560173
25194.0,-0.13,0.05,9.98,0.01,0.01,0.0,1771668805.560289
12067.0,-0.1,0.07,10.01,0.02,0.01,-0.0,1771668805.560416
2068.0,-0.06,0.08,10.04,0.01,0.01,-0.0,1771668805.560534
17118.0,-0.06,0.08,10.04,0.01,0.02,-0.0,1771668805.560662
21549.0,-0.08,0.06,9.94,0.01,0.02,-0.0,1771668805.5607848
6479.0,-0.08,0.06,9.94,0.02,0.01,-0.0,1771668805.560899
8116.0,-0.05,0.04,9.99,0.01,0.01,0.0,1771668805.561009
23177.0,-0.11,0.02,10.0,0.01,0.01,0.0,1771668805.561127
15661.0,-0.11,0.02,10.0,0.01,0.01,0.0,1771668805.56125
1028.0,-0.09,0.04,10.01,0.01,0.01,-0.01,1771668805.56137
13674.0,-0.09,0.04,10.03,0.02,0.01,-0.0,1771668805.561491
24636.0,-0.09,0.04,10.03,0.02,0.01,-0.0,1771668805.561616
9767.0,-0.13,0.01,9.99,0.01,0.01,0.0,1771668805.561729
4355.0,-0.07,0.06,9.96,0.01,0.01,-0.0,1771668805.56185
19351.0,-0.07,0.06,9.96,0.01,0.01,-0.01,1771668805.5619671
18818.0,-0.1,0.06,9.93,0.01,0.01,-0.0,1771668805.56209
3509.0,-0.12,0.02,9.99,0.02,0.01,-0.0,1771668805.562204
10055.0,-0.12,0.02,9.99,0.01,0.01,0.0,1771668805.5623198
24712.0,-0.07,0.01,10.03,0.01,0.01,-0.0,1771668805.5624452
12729.0,-0.07,0.05,9.89,0.01,0.01,-0.0,1771668805.562564
1009.0,-0.07,0.05,9.89,0.01,0.01,-0.0,1771668805.562677
15615.0,-0.12,-0.01,9.98,0.01,0.01,-0.0,1771668805.562814
21971.0,-0.08,0.03,9.97,0.01,0.01,-0.0,1771668805.562944
6740.0,-0.08,0.03,9.97,0.01,0.01,-0.0,1771668805.563086
6385.0,-0.07,0.08,9.96,0.01,0.01,-0.01,1771668805.563284
21368.0,-0.07,0.0,9.97,0.01,0.01,-0.0,1771668805.5634089
15848.0,-0.07,0.0,9.97,0.01,0.01,0.0,1771668805.563524
982.0,-0.07,0.05,9.96,0.01,0.01,-0.01,1771668805.563636
11842.0,-0.07,0.05,9.96,0.01,0.01,-0.0,1771668805.563761
24459.0,-0.08,-0.0,10.0,0.01,0.01,-0.01,1771668805.563885
9949.0,-0.09,0.06,9.99,0.01,0.01,0.0,1771668805.5639958
2453.0,-0.09,0.06,9.99,0.01,0.01,0.0,1771668805.564108
17466.0,-0.07,0.07,10.0,0.01,0.01,-0.0,1771668805.564237
19217.0,-0.06,0.09,9.99,0.01,0.01,0.0,1771668805.564363
4003.0,-0.06,0.09,9.99,0.01,0.01,-0.0,1771668805.56448
8303.0,-0.16,0.02,9.97,0.01,0.01,-0.01,1771668805.5646012
23440.0,-0.1,0.04,9.98,0.02,0.01,0.0,1771668805.564704
13346.0,-0.1,0.04,9.98,0.01,0.01,-0.0,1771668805.564808
312.0,-0.07,0.07,9.98,0.01,0.01,-0.01,1771668805.564907
14016.0,-0.12,0.09,9.97,0.01,0.01,0.0,1771668805.5650182
22679.0,-0.12,0.09,9.97,0.01,0.01,-0.0,1771668805.565123
7534.0,-0.08,0.02,10.01,0.01,0.01,0.0,1771668805.565225
4837.0,-0.1,0.04,10.0,0.01,0.01,-0.0,1771668805.565338
19884.0,-0.1,0.04,10.0,0.01,0.01,0.0,1771668805.5654552
16810.0,-0.07,0.0,10.01,0.01,0.01,0.0,1771668805.56556
1640.0,-0.12,0.05,9.96,0.01,0.01,0.0,1771668805.565666
10610.0,-0.12,0.05,9.96,0.01,0.01,0.0,1771668805.565771
24457.0,-0.06,0.0,9.98,0.01,0.01,0.0,1771668805.565873
10827.0,-0.06,0.05,9.94,0.01,0.01,-0.01,1771668805.565978
1356.0,-0.06,0.05,9.94,0.01,0.01,-0.0,1771668805.566093
16068.0,-0.07,0.05,9.99,0.01,0.01,-0.0,1771668805.566198
20088.0,-0.07,0.05,9.99,0.01,0.01,-0.01,1771668805.566304
4793.0,-0.06,0.06,9.93,0.01,0.01,-0.0,1771668805.5664158
6510.0,-0.1,0.03,9.91,0.01,0.01,0.0,1771668805.566522
21614.0,-0.1,0.03,9.91,0.01,0.01,0.0,1771668805.5666308
14131.0,-0.15,0.07,9.97,0.02,0.01,-0.01,1771668805.566736
367.0,-0.08,0.08,10.0,0.02,0.01,-0.0,1771668805.566847
12775.0,-0.08,0.08,10.0,0.01,0.01,-0.0,1771668805.566955
23749.0,-0.11,0.01,9.93,0.01,0.01,0.0,1771668805.567056
8667.0,-0.16,0.13,9.98,0.01,0.01,0.0,1771668805.567308
3482.0,-0.16,0.13,9.98,0.01,0.01,-0.0,1771668805.5674188
18484.0,-0.1,0.02,10.03,0.01,0.01,-0.0,1771668805.5675268
17816.0,-0.12,0.05,9.98,0.01,0.01,-0.0,1771668805.567632
2675.0,-0.12,0.05,9.98,0.01,0.01,-0.01,1771668805.567743
9693.0,-0.11,0.02,10.0,0.01,0.01,-0.0,1771668805.567847
24848.0,-0.12,0.06,9.94,0.01,0.01,0.0,1771668805.5679512
13095.0,-0.12,0.06,9.94,0.01,0.01,-0.0,1771668805.5680552
1235.0,-0.16,0.01,9.94,0.01,0.01,-0.01,1771668805.568157
15795.0,-0.15,0.06,9.96,0.01,0.02,-0.0,1771668805.5682602
22182.0,-0.15,0.06,9.96,0.01,0.01,0.0,1771668805.568364
6751.0,-0.09,0.1,10.02,0.01,0.01,-0.0,1771668805.568468
6100.0,-0.1,-0.0,9.96,0.01,0.01,0.0,1771668805.5685692
19644.0,-0.1,-0.0,9.96,0.01,0.02,-0.0,1771668805.568678
14014.0,-0.02,0.08,10.18,0.0,0.15,-0.01,1771668805.5688589
6901.0,-0.02,0.08,10.18,-0.04,0.51,-0.03,1771668805.568995
20751.0,1.92,-0.04,11.42,-0.12,1.56,0.15,1771668805.569106
25845.0,-0.56,-0.1,9.86,-0.28,1.4,0.22,1771668805.569213
14595.0,-0.56,-0.1,9.86,-0.33,1.16,0.11,1771668805.56932
5527.0,-0.49,-0.02,10.3,-0.44,1.05,0.11,1771668805.56943
19151.0,-0.56,-0.23,9.48,-0.51,0.9,0.22,1771668805.569535
5017.324582623499,-0.10500631476386368,0.029189479303539805,10.375631790438112,0.021946574773582816,0.04117428095090611,-0.013990624494257003,1771668805.539459
19656.913588653086,-0.05093543168552054,0.00796658982708543,10.380824584539784,0.011824340739421672,0.04010043142321601,0.018459937376155613,1771668805.53985
17159.413757470316,-0.02393203140394528,0.010516894275517226,10.363035100519845,0.010534738938297133,-0.007620407483257845,0.007933096459917615,1771668805.540212
2383.6969124260254,-0.09418176143469498,0.0745545849665413,10.34755517563452,0.0033055686392255276,0.011285268025879048,-0.02955818443314035,1771668805.540589
10779.583537229626,-0.06171437765295647,-0.018120557381294086,10.412844042607121,0.0437785198777636,-0.007912461524493602,0.01933212485250426,1771668805.540949
24482.63236751056,-0.0585570683139065,0.01605909928974069,10.364174745606013,0.0032422707152104406,0.03180804421857401,-0.0295298205881773,1771668805.541307
11687.942999185785,-0.117499263387355,0.056105921109003344,10.335542640996795,0.014204849767812245,0.029588889487180234,-0.02509992064334225,1771668805.5416892
1983.0351917865676,-0.08716834320278706,0.0397264368092924,10.309263976426342,-0.021556819248154876,-0.01555839466668436,0.009018795226141801,1771668805.542038
16613.85997045164,-0.114787305739328,0.026983672084199124,10.38984207929224,0.024566957109681535,-0.007842237050745984,0.005069058502274773,1771668805.5423949
20861.86905595776,-0.13067655167810419,0.060424139216357795,10.340957506686975,0.0023200647151411986,0.01844732270787981,0.007488790745045553,1771668805.5427608
6097.808452491772,-0.14484608620985223,0.027464283810443715,10.335111652086594,-0.03649256255065765,0.04172496451537059,-0.02422479660975448,1771668805.5430112
7761.84264165861,-0.13427672712536104,0.08719669009748691,10.32902516984844,0.029136040429400614,0.013514791334410485,0.024175484199806543,1771668805.543191
22377.08993564215,-0.09152915348405098,0.02862939481253314,10.369425901072697,0.027842921688083302,-0.022807610022699706,0.015266473716180331,1771668805.543387
14908.00613023551,-0.1074117039081747,0.0041242639382087125,10.37262481717256,-0.014321933267464086,0.009112294405165724,0.0014895456231120109,1771668805.543576
737.2050639927668,-0.04145377320360092,0.02139469554121695,10.406971374816,-0.0014384309994086694,0.012352325494104881,0.007269724470467014,1771668805.5437498
13063.106712823992,-0.1494981559733482,0.10391423470896304,10.38704922881607,-0.000738670786843608,0.0006294382837231277,-0.03860710422350805,1771668805.543933
23659.883481228677,-0.12450488598252216,0.08508018755588295,10.39052250749226,-0.0037224709085283626,-0.003770669005368385,0.02299062122586032,1771668805.544123
9143.76017207908,-0.10569004019726978,0.03814493117398321,10.397933134782265,0.016328569141089756,0.029882996726159548,0.021800841149914898,1771668805.544301
4055.4843160319056,-0.12076634370084743,0.08202597079170168,10.344935040385526,-0.007459405195668313,0.0222333818858516,-0.03233166403279512,1771668805.544478
18697.00747776918,-0.06733548244357586,0.0609233110160543,10.334399055636903,-0.01909508276751278,0.012115739469081023,0.03831264959780495,1771668805.544742
18117.38865942943,-0.15681578221923334,-0.0013018633131026969,10.361169267360815,0.04219042151619732,-0.04207917815598496,-0.03895733624939282,1771668805.5449688
3313.412513995368,-0.09901841700815116,0.06614873807530074,10.330308438530526,-0.005441478338826305,-0.0005096854464484376,0.004819643995318721,1771668805.545124
9783.734561304691,-0.11385391611804922,0.09734529764652769,10.304864077305199,-0.004037206824673845,-0.008457256382040822,-0.006869123270704662,1771668805.545291
24120.865170084813,-0.11184597213666232,0.07171305295827309,10.333194707036608,-0.0046225513790366405,-0.0035926254529083106,0.017024586417335476,1771668805.5454552
12558.387393101715,-0.08211427957284641,0.03604609523315338,10.36536509959253,0.03613240461064351,0.0028777476707116875,-0.0009397118484154214,1771668805.54561
1238.077752010838,-0.07204840309640326,0.08701499642973702,10.364372729213837,0.013049974868497325,-0.01680678277803977,0.032332192035192935,1771668805.545759
15585.868941866871,-0.0458499760686846,0.07936140286323584,10.382232496179867,0.014235608840002053,-0.02094987160022387,-0.03447155233845865,1771668805.5459242
21799.395837875378,-0.077527927196064,0.059771425649342416,10.370525965449467,8.050746751348134e-05,-0.010911120161941705,-0.006232714477604853,1771668805.546079
7057.736465276632,-0.0787762934779774,0.07307354484322934,10.325533454977682,0.011866677821590114,0.0026266641191985303,-0.00021558451781512701,1771668805.546231
6802.917301798817,-0.06182833064632878,0.08492865996235693,10.308354039055745,0.016185800432105504,0.015360162485403952,0.024412341896371075,1771668805.5463831
21341.354267447747,-0.07796687185238618,0.08412522291598265,10.302484096075663,-0.004454457181425037,0.009822271025859683,-0.0208957753838608,1771668805.5465732
15859.148891444465,-0.047485162696794356,0.055835155219930384,10.355167425547977,0.00367412700221247,0.010008286013231546,0.00476598739550212,1771668805.546726
1225.42122200901,-0.08650268451339051,0.03723469432845747,10.339323206700053,0.03679657091078354,-0.011500149034476125,0.03308875840830909,1771668805.546878
12150.854294147763,-0.1010471126938581,0.02785359753322916,10.304429540212055,0.0048457937280421935,0.03731320485370571,-0.017009426883570985,1771668805.547049
24234.679032669024,-0.08623390368385084,0.011328273842352922,10.36629420868212,0.024131146605298814,0.01100508693160677,0.0534013840509245,1771668805.547204
10118.274290793785,-0.17883114448439286,0.0012734319755778182,10.34876356572816,0.0127688690204622,0.019521069385962386,-0.0358254237893577,1771668805.5473568
3128.6536548736403,-0.18803163042546736,-0.007159571094196906,10.357970979370005,0.0463016447857563,-0.0052716711483343,0.0033487474202359003,1771668805.547509
17764.358837830572,-0.04126415817015907,-0.04270015744768908,10.429037215700498,0.012074691855667358,0.019763026953183212,-0.00011581554563150068,1771668805.547677
19082.1233138813,-0.08700473912024066,-0.004479489507230816,10.364075965878047,0.007769487462903271,0.00219171709549116,-0.005705364945603776,1771668805.5478332
4288.87710273788,-0.11560786684891963,-0.05593468267059783,10.351094441753412,0.004851708799724085,-0.0038958933153518485,0.009032882538334175,1771668805.54799
8831.585411077767,-0.13468515665306632,0.037791825257724565,10.31915855743712,0.0032679756980059198,0.0034558363693672936,-0.007828814189177986,1771668805.54817
23500.37407169718,-0.10001544424087948,-0.01914569775296642,10.392788017629748,0.012886452460720971,0.008111524059599994,0.0017664977190680682,1771668805.548337
13507.599685461915,-0.12128312435018834,0.027250078046599346,10.385278730060715,0.0488933637560514,-0.014603492780403635,-0.03210907966737473,1771668805.5484958
832.5115330347585,-0.08999457386083293,0.10237568000274459,10.298064803434485,0.0002039653967184895,0.03625665859288238,-0.021968844675027768,1771668805.54865
14597.774765187758,-0.07513804637883582,0.06406140830734243,10.353130146445501,-0.003204575259462306,-0.033734246561417526,-0.01612962289324642,1771668805.5488288
22684.42630005953,-0.1024499035116221,0.06314145367841262,10.333840224368117,0.013573299777357287,-0.016932616244666108,0.005902711008949972,1771668805.5489678
7991.343915162304,-0.010282345120183702,0.07497561269639917,10.320782570738015,0.0126278423752539,-0.009540284966932927,0.0038780473422878317,1771668805.5491042
5768.099537975713,-0.1328850264823398,0.041590951581059986,10.401671319331129,-0.022753351953867094,0.03599162997109901,0.005564659584719844,1771668805.549249
20372.667728883946,-0.12490391847328641,0.05919166146167824,10.382073051266184,-0.017948800122427905,0.03881263218429142,-0.0387561165807955,1771668805.5493948
16926.009846004243,-0.049849867637429116,0.0406579799646886,10.387630398533826,0.02229687538050709,0.013440626491147498,-0.008929917169190851,1771668805.54953
2073.4329208607137,-0.0932005292326081,0.054835191334944355,10.426909188176456,0.01444851326146737,-0.004968268276483658,-0.01945701130969765,1771668805.5496871
11295.024829765815,-0.08661153864373569,0.01735974922034043,10.413281466172101,0.012524190598736074,0.02090811497471564,-0.05948399912377247,1771668805.549898
24457.357978983375,-0.07735686841305835,0.04508103984983126,10.347211141815354,0.010546350058153691,0.015200046173475323,-0.015802164020348834,1771668805.55005
11081.068938203853,-0.06940227346682784,0.02177307687299446,10.381004684665779,-0.01780951211365594,-0.005347391309033809,-0.03291497201498058,1771668805.550205
2221.287175372534,-0.0946966474401755,0.024888686413060194,10.298922767031469,0.0027523759044648906,0.014257456120122287,0.008949959091681389,1771668805.550346
16815.181990717403,-0.10746834575929197,0.043366822323194366,10.303719946397317,-0.012846308517040255,-0.011306678442425845,0.005337483197856745,1771668805.550488
20082.881647621783,-0.0917240395072921,-0.0034967050194966614,10.363335285100833,0.02366983394760283,0.0285725401534045,0.023529397636135718,1771668805.550632
5311.00758613378,-0.10173081257144502,0.06536144638548434,10.35219606927484,0.009048909308219812,-0.009687902961951147,-0.006205667061950053,1771668805.550883
8024.4056923880225,-0.062337432757862715,0.009400760328899586,10.38341581524624,0.018400632460754032,0.021038807016776427,0.006000763267288529,1771668805.551195
22642.61970369382,-0.06949855649321905,0.0007932101402349548,10.370949045658866,0.029137278680324268,-0.014618565866707057,-0.0005033488272293493,1771668805.551369
14346.863318500535,-0.12938803366015228,0.0071405942355801414,10.307048450407281,-0.008716873265941642,0.03351892554815242,0.02211626208861278,1771668805.551577
657.4369429278876,-0.12370686196722126,0.0731497444249209,10.285822357525184,0.008992983340143382,0.008221890813233662,-0.0393107673541649,1771668805.551733
13537.710025374845,-0.11648840621617047,0.03461146820825652,10.28402260430483,-0.004875119378062492,0.02012358133380762,0.001230260979918794,1771668805.551899
23429.404886743163,-0.09419846546103747,0.005068442462362054,10.335247217994032,0.0005307585668471454,0.0076575146355095285,0.012632419460689952,1771668805.552068
8897.707730683307,-0.1583781243365788,0.02792941237012826,10.354856370105322,-0.002038852738480795,-0.03573566001583708,-0.027131326167212345,1771668805.5522282
4785.873275441659,-0.12619168070378864,0.007236639921437663,10.375026155685715,0.005794626630335364,0.01938138565094476,-0.024830268280656712,1771668805.55239
19477.962704501962,-0.16838654890288562,0.07163315306010354,10.348040405468044,0.01216173194920505,0.025560151600470465,-0.006188714433401886,1771668805.552551
18020.130697373603,-0.0429170928941722,0.03053313668630589,10.397481908587809,0.02130795019090488,0.005599601051532308,0.0037346335220941273,1771668805.552711
3079.994713608066,-0.045118307137318445,-0.008159148213140233,10.32989192641949,0.0205580533654665,-0.012855723901021429,-0.03359620675440648,1771668805.552842
10427.559067990556,-0.05601946402562579,0.11340377951522589,10.428607824214968,0.028490372502516105,0.033098573474935555,-0.0026000903819888826,1771668805.552984
24347.462121427336,-0.10394294441832382,0.05266596949541016,10.355296227375973,-0.0014375793275466517,0.014475107100335153,0.0019732558412917604,1771668805.553247
12055.589323797425,-0.13785053973785344,0.061020224070254245,10.335678753520439,0.0174168312828809,0.03616554330845353,0.0167946506231798,1771668805.553442
1492.8570988257102,-0.07516667539102954,0.11136430224079838,10.289710294469186,-0.01945025267753777,0.0186614851383832,-0.010953472819578154,1771668805.5535738
15919.449711306366,-0.09254843366454775,0.023697082615015807,10.29943372224929,-0.011876851936054665,-0.03629599816987483,0.03003658520960368,1771668805.553712
21092.365303209073,-0.11790366907854762,0.05476554797125301,10.31320374734914,-0.008183365279932636,0.027706940837253093,0.00833622582857549,1771668805.553857
6287.433426340335,-0.0796260909138612,0.03243217293595616,10.34687869317716,0.01900744596408732,-0.017521973835598673,-0.006945966503694361,1771668805.553996
7012.948334483255,-0.09564182201073089,0.051302598651694446,10.38216921002175,-0.03244507109857067,0.013646750803195705,-0.010259729488923027,1771668805.5541272
21612.674982364682,-0.08994911605651033,-0.0014835285326901388,10.28109552887427,-0.02631687009900268,0.04304678204612469,0.012194745189622552,1771668805.554324
15207.57418579948,-0.07522241509836579,0.13683106823449098,10.34254515828397,0.007989481862946513,0.04504865322667408,0.013131614794454302,1771668805.554458
924.9109449330657,-0.09437053805691209,0.09953922131527541,10.3587863863849,-0.030744893082993007,0.05470537437715399,0.00988694758605247,1771668805.554589
12648.841066921046,-0.08629323003849093,0.05773552420791171,10.329919948589977,0.007967895687045467,-0.02140032124624964,-0.011392565549804385,1771668805.554736
24111.116969510083,-0.10193796021859514,0.02745539210313157,10.34332730097009,0.03603402814318487,-0.019829611567869478,-0.0030394003653646724,1771668805.55488
9948.08883782934,-0.09799699370057037,0.05225522990942916,10.405501894475693,0.022234821175094153,0.021108594525280088,0.017519368935390044,1771668805.555016
3850.272832295518,-0.17146156701722504,0.013646923165236918,10.392745115855003,0.0004611109361071352,0.03623273663035836,-0.007131424083380836,1771668805.5551848
18518.052557170573,-0.09491776989555901,0.015314827406722544,10.332839745033002,0.006405796967370588,0.027099780879156595,-0.006363596875196276,1771668805.55533
18928.444121931072,-0.10767825663672653,0.025672754589078854,10.338208465281175,-0.008286850743426388,0.045933277614608754,0.0024015278539727884,1771668805.555479
4077.858144189853,-0.0868104997726834,0.06637006892297248,10.330886139640448,0.018684125073566215,0.05873454424527227,-0.017917548714947888,1771668805.555608
9496.804878875693,-0.06335741696551246,0.036141761169891685,10.427571844605104,-0.004569743530348768,0.02768775143801277,0.014739788918423964,1771668805.555753
23894.23626379966,-0.09864475010979834,0.04540363943282575,10.445674864690018,-0.013262398374224221,0.019301674650240783,-0.02982466195929159,1771668805.555894
13080.622536777033,-0.04165339424480837,0.014086398763581118,10.318774533670412,0.0008872428545995442,-0.029093361714546892,0.02620887226348983,1771668805.5560288
933.6615838338095,-0.10602024751683126,0.02253041376747861,10.3714375137449,0.005198263174922189,0.015436530140384626,0.005433937726718992,1771668805.556172
14971.210335833264,-0.04124503984063399,0.005842786242365942,10.350092193070285,0.001786428995082267,0.005426791509992771,-0.0032518691182869723,1771668805.5563169
22061.01014535312,-0.06318201615084981,0.03202019486385798,10.3514464475998,0.006713150700232374,0.0419153392630728,-0.009401153039014754,1771668805.55645
7205.5043244096805,-0.11843112505987824,0.0880364048501271,10.364919209197232,-0.0034722625736666474,0.050413343362045934,0.019768858770434963,1771668805.556585
5976.233527507955,-0.08731900438698262,0.03782068225615061,10.333099038164043,0.029265193056650575,0.032251179746730696,-0.015215282414455808,1771668805.5567229
20611.891765161716,-0.12024067540848254,0.0329721795617784,10.350300591784661,0.012237163284423796,0.01079636834239191,0.008520825520732937,1771668805.5568588
16176.19336301537,-0.11152946151618486,0.1074645111456087,10.36839778094731,0.003658758159123892,0.007765587970055209,0.017073523149481237,1771668805.557036
1535.6503424732014,-0.09202750683042697,0.06943298086885313,10.372015766996123,0.02642842816611269,-0.0007907313751141555,-0.01856464278871451,1771668805.55729
11672.410162901033,-0.09325452251576627,0.09703218374448998,10.357308412900485,0.005230252426347709,0.026646859057284554,-0.015242750558213277,1771668805.557463
24420.39663941742,-0.06942880171065956,0.05760148020755877,10.349616608541972,-0.01388650884174944,-0.007897925671681665,-0.0036660336422491622,1771668805.557777
10758.223105507184,-0.1229622753178208,0.032559202630048696,10.31825980708754,0.04906517889815628,0.04491889877944233,-0.0087660362979909,1771668805.558027
2816.4532168634137,-0.093316125463612,0.0038920892794775236,10.336244695817964,0.04102200514190344,0.04302553598033426,-0.026537011444469665,1771668805.558292
17596.115523389053,-0.10055635962520458,0.012822321781485575,10.340822874732563,-0.040898269702092836,0.00944530526052506,0.027626580475291544,1771668805.558434
20017.695472828837,-0.09669074220647267,0.07578637896729179,10.340005626153793,9.072761315840843e-05,0.023851216515359156,-0.008527677027256573,1771668805.558572
5209.878062155711,-0.09636717315645339,0.05409643876090633,10.373597479099656,0.009669398937588941,0.04502341378472915,0.014768484226383792,1771668805.5587032
8656.568944084378,-0.07884024786018877,0.0755322788335558,10.356029251655103,0.004814833241232374,0.016666930458409127,0.00410701238571189,1771668805.558835
23244.58676734863,-0.10351975477755622,0.06834292703312952,10.300563795906696,0.0025373949567092085,-0.02286334638076831,0.004410435188522918,1771668805.558956
14044.419820600444,-0.06845230041931592,0.061101092470271026,10.349292940634049,0.0007659181227004529,-0.010485440079285917,-0.02531875668432482,1771668805.559072
680.7638674319113,-0.07518660436775049,0.025560245184145958,10.364562851356581,-0.025359365933942613,-0.011297859270333936,-0.0007222602248596786,1771668805.5591931
13943.23412216473,-0.030790514254133178,-0.015405322194322677,10.320211107440437,0.00688364434737827,0.0077515072383124595,0.01861900733215762,1771668805.559315
22991.742355175964,-0.017695286610656436,0.021924314563030754,10.373095293803885,-0.006692523299532268,-0.010500397872824769,-0.012666541999077373,1771668805.5594518
8299.631311608004,-0.02624041725566779,0.03256693063990247,10.330260110425522,0.031234823904098666,0.027823166405572784,-0.0056128157177512406,1771668805.559575
5071.734892604463,-0.03540014894600485,0.10402646926878081,10.359978567672567,-0.02114448687658052,0.0657219490152916,0.013687254814574144,1771668805.559691
19742.518690848112,-0.06767771129501475,0.10402687602980798,10.32526493467274,0.026289983466664658,-0.005707985282908378,0.03556087381885339,1771668805.559805
17351.97853524718,-0.1157079736372326,0.06842180157798687,10.341961939343049,0.028153697086035198,0.006592989041769013,0.00488253560893181,1771668805.559925
2480.9460819171895,-0.05071802195769639,0.07383962188539815,10.386129280170906,0.018538486595426076,-0.02901882403490854,-0.00408947411586918,1771668805.560048
10833.071886124224,-0.12224155373779011,0.04338698311310542,10.390815764151824,-0.022161796393279143,0.04035035270124536,-0.010690811946920405,1771668805.560173
24502.091850379606,-0.12656170481854465,0.04449329642897734,10.336629625645855,0.013520817407601124,-0.005338347436539132,0.018744958164419713,1771668805.560289
11735.645514033873,-0.12376340742339315,0.06956890868643897,10.394319395725892,0.009130218994235531,-0.02184705265356844,-0.04791252171670345,1771668805.560416
2011.2221387605844,-0.07368959907674273,0.05514045095875507,10.446267998134056,-0.008074080505050332,-0.012105458844905836,0.03729641603498852,1771668805.560534
16647.902848213773,-0.07988893071096623,0.05957404891662577,10.392182131229601,-0.0017350801472124418,0.009390520571426818,-0.027525636776384775,1771668805.560662
20957.19418939971,-0.0324733401697055,0.05919808971330579,10.315739104232808,0.016339734152725122,0.03364712377782203,-0.014611557861866636,1771668805.5607848
6301.064263871123,-0.09317231313810495,0.04380109210853989,10.303539353164467,0.04261463147604688,0.00896732443674543,-0.0019073736813025222,1771668805.560899
7893.098076308175,-0.056100975816059044,0.054787819372832364,10.340345927630958,-0.009289417449343236,0.012921218540908944,0.005671449305650463,1771668805.561009
22540.48473773506,-0.12128014966248042,0.024097094321927297,10.40420690046472,-0.0015259297333505154,0.0005316706950665243,-0.03683137738146402,1771668805.561127
15230.922565541521,-0.11235944720384668,-0.02906052075410329,10.376888325547487,0.00825545794186,-0.04280047225002134,-0.010965203304097977,1771668805.56125
999.7574679877587,-0.08616574290599197,0.03151549455650097,10.39648696547114,-0.048956145172630396,0.013341049222534027,-0.013082777150599346,1771668805.56137
13298.474803909927,-0.09623700772112241,0.037391077892719296,10.399234559694301,0.03742334490665258,0.008882454859953167,0.02548190875888631,1771668805.561491
23959.429028023762,-0.11537390429750399,0.022511242713587926,10.425152576559968,-0.0011575572524921065,-0.022171426486465265,-0.0037390446950017263,1771668805.561616
9498.7619828336,-0.10611985809417583,0.003814064499733138,10.396084813135637,0.017731753036931877,0.010775276973045013,0.027196343769277757,1771668805.561729
4235.399500671716,-0.07336043638871868,0.104244230106263,10.351663818410064,0.011919759626594308,-0.025223542068647797,-0.027609574966195195,1771668805.56185
18819.55384976509,-0.07108034863311243,0.0024284257347063176,10.336640128749435,0.039112255256615214,0.023967578444071665,-0.025085030723137506,1771668805.5619671
18301.172514984675,-0.10722759505502001,0.06367663656766161,10.29320484482453,-5.0872634761117404e-05,-0.014672012001417207,-0.023721169701505455,1771668805.56209
3412.6076119381646,-0.10373797300740989,0.024083084996578033,10.400069000929205,0.018428605724022114,-0.03441516417423905,-0.026631643390061285,1771668805.562204
9778.87884902099,-0.1219468065201201,0.019512109506591522,10.364705866986618,0.003880516399637236,0.05993502519096222,-0.013889938526910808,1771668805.5623198
24033.359181193515,-0.06860795005591508,0.012822589860302306,10.396477289762789,0.005321121333050378,0.07253440323343897,0.010492553317673766,1771668805.5624452
12379.407168186211,-0.08712920635240778,0.025133377786245657,10.288082681965108,0.010608236631620901,0.05316646615552473,-0.05020252952595279,1771668805.562564
981.2886846346028,-0.08782975015415458,0.03826813654674073,10.245803941458481,0.0015677451519817856,-0.0019669258496574533,0.048139210104678594,1771668805.562677
15186.151763993386,-0.10145846180246726,-0.030289955481878385,10.369542974645316,0.03212918341571195,0.027294516244393673,0.006097705824451092,1771668805.562814
21367.602010854433,-0.0861456275552318,0.05489897554961258,10.363984758989332,0.002214551399291466,-0.03542083266219959,-0.008559017155609472,1771668805.562944
6554.912724587328,-0.09174888361909377,0.024745391030810176,10.364427070347418,0.02510793818662465,0.024735104982134673,0.024120542667499648,1771668805.563086
6209.661436274559,-0.05324408803012967,0.08034268416879066,10.320985414552242,-0.024702302856520336,0.04591587912681132,-0.0337271712402509,1771668805.563284
20781.18374808106,-0.08232509626553326,-0.02893462789989205,10.351286723166844,0.01233965592597052,0.03775713895337129,0.023310007584719385,1771668805.5634089
15412.740851583001,-0.07761651677689496,0.007692060987240306,10.33578240069136,-0.03416545927091265,0.007257680337727878,0.0014091536893133228,1771668805.563524
955.0181672910938,-0.058525573513634965,0.02447364287618859,10.30931858088949,0.013916666225422479,0.0029162883065383246,-0.018417874478194308,1771668805.563636
11516.811642671692,-0.07250861151550718,0.04730015276146788,10.368257912957485,-0.0014664663847396271,-0.008194533475992603,-0.021704345967837477,1771668805.563761
23787.24956002867,-0.070039054287145,0.01744661830908675,10.381589629115261,-0.012653073390067738,0.01170517928328483,0.030814328009117865,1771668805.563885
9675.759381652117,-0.10101347827953186,0.049783256025372834,10.333281788011407,0.007805629106824346,0.011913915122223584,0.017298567329246,1771668805.5639958
2385.6139401472324,-0.10169476462918726,0.03584809216103728,10.372145381963316,0.04516311030543538,-0.007472889746722733,0.02057645493602154,1771668805.564108
16986.311352084875,-0.08816474941805509,0.06134193451663656,10.419435331190208,0.0157266855980307,-0.00774900154661975,-0.030476863024609818,1771668805.564237
18689.23046560233,-0.07282499331856335,0.0995845499110464,10.366069471301193,0.027754606644556173,-0.03313731605616876,-0.02573467601633045,1771668805.564363
3893.0432064275387,-0.03354687552815735,0.10797803328217837,10.346333398961564,-0.0058964113377001585,0.02484362815296853,0.018075409584804036,1771668805.56448
8075.009459357815,-0.15812797083497265,0.030271590446862198,10.368450385986819,-0.010589358545284864,0.015099732700653122,0.01580573155936972,1771668805.5646012
22796.234487936323,-0.10324586041361067,0.038409254430748614,10.390174690248031,0.04433979799819521,0.005320818748548206,0.027035052398654048,1771668805.564704
12979.476337624526,-0.10886093493909171,0.05385340129069679,10.356688280788584,0.0015589457364040705,0.030697812211163363,-0.014334789313765686,1771668805.564808
303.4559955380679,-0.04665185930094936,0.05627255287947683,10.344738233145264,0.006330521901024085,0.006663727570131212,0.0032346922142577578,1771668805.564907
13631.071535528421,-0.11916322990064789,0.05734828453223179,10.33959544416847,-0.009319538721289579,-0.0005898728474968999,0.014988058291885067,1771668805.5650182
22056.136686543745,-0.0923339885183146,0.07456047880518019,10.338455617244707,-0.003180497830878394,-0.019782297307289892,-0.02231300049887693,1771668805.565123
7327.085822290897,-0.10640297201987878,-0.02239242611689637,10.404721831735833,0.039834966410927534,0.04650059954880726,-0.0211109067136202,1771668805.565225
4704.153383730912,-0.10614033769393248,0.04507850947430719,10.36740879210224,0.028220351764878485,-0.007037784066735036,-0.031601375097619316,1771668805.565338
19337.960616074895,-0.1346066468582737,0.026520084253321464,10.397024159545346,-0.009252774384974627,-0.013047467595366836,-0.01669664522606742,1771668805.5654552
16348.331074050411,-0.061211802883513335,0.02115554794550335,10.42295852084839,0.016121796259989964,-0.008696705658891458,-0.016523875973089068,1771668805.56556
1594.9512791631844,-0.09716884624902028,0.0656585754072399,10.334817560197667,-0.019854211368864807,0.05918978603260996,-0.0026913483240971884,1771668805.565666
10318.60406056695,-0.11214651353147136,0.0648117974774744,10.32621058641928,0.017948965388084125,0.053801671490081984,-0.005160464858134045,1771668805.565771
23785.327600389443,-0.06166568206959677,0.0010104489460557424,10.368882058794696,-0.002115552641109334,0.005055752706718466,-0.025340796597501138,1771668805.565873
10529.655142667822,-0.023662300784724984,0.035859268624367245,10.335026220102648,0.01789946254298809,-0.010778699392294144,-0.013103620510419592,1771668805.565978
1318.7605130988882,-0.07256992308377587,0.04857490746256704,10.270251729515733,0.010729379926763644,0.032928591119610405,-0.012248297935532358,1771668805.566093
15626.742134628492,-0.052464835850183446,0.06795909844388966,10.365406342959398,0.031091098057321107,0.03210068400250995,-0.05711213692966022,1771668805.566198
19536.30740276056,-0.05715831015503612,0.056304116277080755,10.382715212261221,0.0006595618314306077,0.0016652755082513045,0.016688432440782587,1771668805.566304
4661.392955763303,-0.06421900009050759,0.04313142939724537,10.337225396895171,-0.024123370392441522,-0.0011258669340195513,0.014713718770120947,1771668805.5664158
6331.212147329062,-0.06866262044463478,0.06117534810415505,10.295695809412576,0.008635710954165664,-0.016904265204457532,0.011633968300513588,1771668805.566522
21020.414508524056,-0.08517803323734265,0.03789979068211802,10.32578489577623,-0.015066709566259686,0.047206976298427614,-0.014176080689072675,1771668805.5666308
13742.89807251687,-0.1420642105956024,0.09261194054791723,10.390338815472282,0.025323552030697798,0.010930813046065451,-0.03068952235197422,1771668805.566736
356.90623912183906,-0.06754341445436933,0.07755896786960577,10.396522933151394,0.02853567284523903,0.03311643945748338,0.004198633527948334,1771668805.566847
12424.171650957294,-0.08678047788622392,0.0750524865506733,10.421376006927792,0.029701399040064642,-0.0020303776639695585,-0.02245893618755742,1771668805.566955
23096.760942336532,-0.13749552819145167,0.026897229952820803,10.325155754458386,0.0033377869263236494,0.015100634705371334,-0.032450538272742094,1771668805.567056
8428.971731835476,-0.14670530546242322,0.15728370251701812,10.387315055272913,-0.03185849891241931,-0.004111015702490859,0.0017114804359423654,1771668805.567308
3386.363114645622,-0.12710858735277594,0.1462099599423447,10.359100668210933,0.04843382963944312,0.026378642508539222,0.03376776100925326,1771668805.5674188
17976.33084409084,-0.09422986830849803,0.00957881020580451,10.418500561628468,0.03218907264807022,0.028982499430527484,0.004270515797081112,1771668805.5675268
17326.695772888994,-0.1093532007386157,0.04425409348227497,10.356155219403337,0.017670118542671948,0.018259603354041875,-0.027037308979116284,1771668805.567632
2601.529087329872,-0.12622900210826507,0.07424825593102266,10.357883064624396,-0.014781896374982055,-0.005759228457752278,-0.04369495411459315,1771668805.567743
9426.768183082979,-0.11144622925039792,-0.010974357579681456,10.394783480245557,-0.005295936393884378,-0.006638383463078092,0.009616978295207418,1771668805.567847
24165.562738234632,-0.09809336675264246,0.051100706363339465,10.34647709592209,0.025997798631307096,0.004281413973093821,-0.006168436016179454,1771668805.5679512
12735.38212812852,-0.11325301873660922,0.05596287171691988,10.31616411688555,0.021701322162105685,-0.01694848503616367,0.023912590461078208,1771668805.5680552
1201.074288031798,-0.17182493941035076,-0.004809281076936237,10.311030895744304,-0.005793629814793227,0.004334294848773332,-0.062021871805813034,1771668805.568157
15361.222002267503,-0.1489405527317989,0.01566857170466155,10.32590591977474,0.027224867303055355,0.0527407144826952,0.006065744947106174,1771668805.5682602
21572.804861122462,-0.1305082306513143,0.09228539481446925,10.349939369368975,0.03006381873697091,0.011595632690830037,-0.0003644819361431049,1771668805.568364
6565.590669693718,-0.10758133214102966,0.10970308777659693,10.390029244329682,0.010716563145801208,0.025563125816166474,-0.002113546942845341,1771668805.568468
5932.463391610286,-0.09698044995108134,0.022785161854531086,10.276567863430168,-0.005994583607152823,0.0010160696071558608,0.01574078676627599,1771668805.5685692
19104.50258652832,-0.12088373010766303,-0.0377828373373477,10.296705561353262,0.013454162079160599,0.05418433239682274,-0.003148297566984909,1771668805.568678
13629.113470820646,-0.0359769163568577,0.06910874955573496,10.585424047600242,0.005030967154126735,0.14232410327577585,0.0009153034560934136,1771668805.5688589
6711.46938860778,-0.012492069799300117,0.08026169391408172,10.58255806866479,-0.04496415095375429,0.52220249377487,-0.052209176142420155,1771668805.568995
20181.101939103228,1.8459335153515013,-0.038534480102004845,11.875361098880518,-0.11059034923204347,1.6117993708930967,0.16790671449805805,1771668805.569106
25135.22934106112,-0.5666324520135684,-0.12260026815018406,10.220750810602494,-0.27266016668993664,1.4459208531338281,0.24265990409184696,1771668805.569213
14194.16879268611,-0.5562605185311574,-0.10191160270853648,10.21834131978294,-0.3747403842531081,1.1892033226992966,0.11221522613371562,1771668805.56932
5375.22057716643,-0.48870077286160823,-0.05831953401099339,10.692293621860442,-0.4462323869756749,1.070716438022193,0.1355779394526085,1771668805.56943
18625.03101110212,-0.5674703589795518,-0.22780042304934203,9.874231666790465,-0.5160896707123062,0.9455320919789802,0.21812480210211602,1771668805.569535
4915.709608213158,-0.12054811926469601,0.06762209143862086,9.556758392983301,-0.008978573356660954,-0.02283545821551895,-0.044404271437654866,1771668805.539459
19258.923233942587,-0.07715526559504082,0.03299441004884669,9.48614263584165,0.03196399689668918,0.024440244082097936,0.004926098640260318,1771668805.53985
16811.992112372525,-0.03470325492262511,0.03785921722214628,9.513127291722759,0.021832509011997705,0.021566261619138574,-0.013611061598262976,1771668805.540212
2335.4369487911626,-0.07386894648101999,0.0498731152955302,9.472292611464205,0.06175709618597302,0.018146617227012572,-0.01658953253882819,1771668805.540589
10561.318576352805,-0.055959268292863906,0.020250442017622945,9.50697945578977,0.004128902053692421,0.001629206823501659,0.016977178614108378,1771668805.540949
23986.91382671771,-0.056321322079472554,0.010895102315009989,9.482978240191223,-0.0198065363325442,0.01066603690761814,-0.007306021221267531,1771668805.541307
11451.28389115073,-0.08825692876096283,0.03428646671005491,9.441842819044007,0.0013108432788514954,-0.02089612146160508,-0.01925686283806819,1771668805.5416892
1942.8709407306549,-0.12122947010292069,0.0515781384488187,9.489077845659876,-0.018304660255308962,-0.004298993477830076,0.018098443474132066,1771668805.542038
16277.472623879026,-0.1407598867864801,0.03791810160869992,9.509051806973389,-0.023070781858958958,0.04025986714527124,0.015432987313373904,1771668805.5423949
20439.4619663231,-0.1293167722997552,0.0677262453598958,9.485934151069612,0.016472066988093143,0.041635858024594866,-0.0021682978594646457,1771668805.5427608
5974.335292450997,-0.16222251546739835,0.057503034165279826,9.512199976175514,-0.0048541509993892795,-0.01713732720898135,-0.04552292985005163,1771668805.5430112
7604.666645452608,-0.1273485310167453,0.07695241772820106,9.475499144260713,0.038212719344605,0.009402304180467507,-0.0014563589634157608,1771668805.543191
21924.04684091719,-0.1087687452320172,0.03862510769764747,9.488906837692802,-0.002841849721335951,0.014429443725045137,-0.028362285999597628,1771668805.543387
14606.153257512182,-0.14895774729315844,0.003077784231661425,9.488550220498329,-0.0057725428614615985,0.012593001395998945,0.00557226152317839,1771668805.543576
722.27265572847,-0.05647589342871759,0.006377995384618607,9.503356035170624,0.002982443803407354,0.0005872626842282611,0.01386704631788615,1771668805.5437498
12798.619807836316,-0.14727600437995675,0.07822002300034657,9.53281252017787,-0.013765158614250875,0.0011553485165709616,0.006628817064383573,1771668805.543933
23180.8145299704,-0.12554119075648015,0.11568056264988863,9.51943412981206,0.0041084007517033574,0.02399721822216926,-0.01852328774569693,1771668805.544123
8958.638689691508,-0.11067048383989457,0.018582665268222383,9.524513729401994,0.012399238020535185,0.008467443683916394,-0.0033348451484507863,1771668805.544301
3973.3805209077373,-0.08869222855053284,0.09043084821204438,9.490463476109262,0.02717177383019633,-0.018340165489089736,-0.037460846513074145,1771668805.544478
18318.44016804946,-0.10464899714355261,0.045017655339333065,9.45462768892608,0.039620556449876644,0.0364948290287249,0.0011182706675706383,1771668805.544742
17750.545058846616,-0.11479809690330042,0.015740456106600662,9.49098850279964,0.01680124234045515,0.010056161583424835,-0.009371946155825862,1771668805.5449688
3246.33051827857,-0.09845361737795721,0.06237105677307604,9.447579882175356,0.0392878527947047,0.01895806842219547,-0.0014142780868494713,1771668805.545124
9585.607220234788,-0.0772835127399156,0.05793841692104742,9.441596399498483,-0.0006978308939757319,0.01260200896922482,-0.0015046769548416707,1771668805.545291
23632.476984783516,-0.09727219363102602,0.014603685430582486,9.475024797442387,-0.00708703610045547,0.04508084200687181,-0.02347853753345936,1771668805.5454552
12304.098040114148,-0.057433515110981964,0.0875170149660309,9.47877457214803,0.037659301611049446,-0.0013943460654729735,0.008009605622399794,1771668805.54561
1212.976077965266,-0.08270659518492389,0.09082848075981509,9.464025799640218,0.033099271418317366,0.02695560078032478,-0.022223587303845972,1771668805.545759
15270.273372917738,-0.09837942581645066,0.04959172448570441,9.50237740450639,0.021610862144107488,0.033537073767209144,0.026810786000263768,1771668805.5459242
21358.016424397425,-0.06953353262363267,0.05289738582461716,9.454752254678391,0.0057302669207812615,-0.013800547886647248,0.035488960996007284,1771668805.546079
6914.816535582723,-0.10150778261319254,0.03911851300250228,9.497003212094103,-0.0030749835857334937,0.0015654618880612732,0.02323422352841665,1771668805.546231
6665.141348879685,-0.08063508705283397,0.05184504868351068,9.504509683227898,0.034099593817210214,-0.016194629475577083,-0.011172274958070083,1771668805.5463831
20909.2267593972,-0.07188283097691901,0.061292594864636174,9.486412442613554,0.03476367890199377,-0.001843352879908547,0.006222415105340156,1771668805.5465732
15538.048265203566,-0.04957696655732091,0.05478479027299469,9.482094205319704,0.00492296228420251,0.011750082476051372,-0.002167953346313881,1771668805.546726
1200.5781070011,-0.06892819078383076,0.04701824461039847,9.466398015178404,-0.019332331451966302,0.011363211960255611,0.007707046307972691,1771668805.546878
11904.847463683585,-0.054476691120549585,0.029383685159872074,9.471394965836224,0.01818275411958757,0.0006402802933376041,-0.012494383541432766,1771668805.547049
23743.933077129735,-0.08047360902470078,0.023059301284414767,9.500451359285835,0.013902034668350147,0.015228773715448549,-0.0011385372664549508,1771668805.547204
9913.395351234341,-0.2186197969957407,0.0005175849641425956,9.47068584562948,-0.0034751655169113055,0.01636162462608638,-0.0033511971786450608,1771668805.5473568
3065.2729290344973,-0.14807633758514607,-0.008285421506839342,9.437730367262558,0.03956008823823795,0.03838638046119265,0.0012490970081691628,1771668805.547509
17404.62691787082,-0.07919325865670462,0.01751279488384185,9.51133768418863,0.02703211143567605,-0.002169408456619163,0.028732772752364615,1771668805.547677
18695.750509352638,-0.09448286913916348,-0.017167178746812554,9.4924683800739,0.008641342866102327,-0.005667370839989068,0.021937519796372214,1771668805.5478332
4202.066750551065,-0.0852777134474421,-0.032198554287457395,9.49125331884805,-0.0027008410315654038,-0.03281694928862131,-0.026299852129121493,1771668805.54799
8652.770846469724,-0.1385884577033157,0.028789287624519808,9.484072097457956,0.012576226622504398,-0.03890246393022541,0.002106054660690707,1771668805.54817
23024.535953494036,-0.11325307247332873,0.030379037191825782,9.522312877460022,-0.006641857743363587,0.002449034179367102,0.002422697899488489,1771668805.548337
13234.092436014478,-0.1005389115988888,-0.014678354679902294,9.520057984667258,-0.0039012413736665445,0.027409518601441092,-0.019961454784377254,1771668805.5484958
815.6379265944258,-0.12481781245474247,0.07761104008175779,9.395155893709157,0.006423464340333464,0.03551696304436317,0.025769869526126844,1771668805.54865
14302.197440594735,-0.10834754175148881,0.039482600566370395,9.4782522015123,0.020111318757367807,0.031936520231723914,0.005828364300798847,1771668805.5488288
22225.127121362933,-0.1031116854023754,0.07837175379985355,9.519990412124606,-0.01212474978978094,-0.007212244473243036,0.026074228072008657,1771668805.5489678
7829.539234629588,-0.09268889840416583,0.08221464718437564,9.465559934848786,0.00070773477087938,9.524201731391512e-06,0.010038522085668565,1771668805.5491042
5651.353077575843,-0.11430968204271479,0.08871355297757312,9.53702457178859,0.049553545085782046,0.03317696844215885,0.005700392712192403,1771668805.549249
19960.234452031367,-0.15070057154856986,0.004384990407431995,9.523173520814126,0.014477480262068302,0.016409063676505083,0.00011366956522133436,1771668805.5493948
16583.34048391563,-0.06678191882888888,0.02471785765391033,9.525842628152693,0.028805647755973128,0.029976208308705395,-0.02327082837292273,1771668805.54953
2031.4356633768948,-0.0804962956674979,0.08238216369887989,9.533546799563076,0.023608533793865592,0.030842318827477965,0.0008385768234944095,1771668805.5496871
11066.34048653172,-0.09045156691470972,0.002633459063287913,9.548241134822083,0.004262056391947452,0.021079618882045868,0.009709503246247496,1771668805.549898
23962.157389850232,-0.1027069002552671,0.011081487343847278,9.500576094812871,0.005579101802069338,0.010709720538543592,0.004056421337875232,1771668805.55005
10856.710851906913,-0.08392607376077103,0.04266802879980848,9.523799255774051,-0.023154685070598185,0.011527791668794656,0.017418443697070428,1771668805.550205
2176.266023898238,-0.11961466643340148,0.03468673658643356,9.441609332702749,-0.004431900817585863,-0.011236053980729058,0.04163474372175222,1771668805.550346
16474.677557643627,-0.13477718831382374,0.04894438445475658,9.49287300786186,0.039141373116606204,-0.003416513005875463,0.011015869329763953,1771668805.550488
19676.25047280575,-0.08792496522017515,0.01125963841047794,9.46470690312582,0.0060373070417215615,0.020472437186969623,-0.040524793321573736,1771668805.550632
5203.500632157194,-0.1269934644258002,0.026913386100673366,9.507676649352982,0.03614210207057967,-0.007352425801408216,-0.014768125878447915,1771668805.550883
7861.9135708847925,-0.07130239879991024,-0.01039616878578867,9.508025321342066,-0.017422660505519685,0.015029938011014725,0.0021488139508405173,1771668805.551195
22184.166145243078,-0.10169911147224203,-0.019288181940376257,9.523546753979831,0.029579777847551447,0.003902030954660406,-0.026249954601416783,1771668805.551369
14056.345249636475,-0.12450252010853188,0.04949581202037051,9.421461414425497,0.03332344081429864,0.05643149157325286,0.010160884184383696,1771668805.551577
644.1201272487095,-0.09272454254217505,0.06592691068400497,9.45937826524838,0.001444574983926224,0.026917424219960868,-0.009483288212262918,1771668805.551733
13263.590056615256,-0.12058183217551653,0.059938573674490604,9.474567126110578,-0.03414445177357197,-0.001950418993447328,0.0040167782897835205,1771668805.551899
22954.99843216902,-0.08498335487983186,0.021820143939353238,9.530575485862624,0.03418170004655033,0.05036099200045272,-0.015118570643839969,1771668805.552068
8717.594982773415,-0.1369602397466447,0.042200580597765734,9.49037170969901,0.005508631073180886,0.015116222089615858,-0.007286749980969002,1771668805.5522282
4688.9378634955465,-0.10497239390315465,0.018395081002444722,9.531226077128927,0.06749542868607453,0.022507982274911804,0.001473058269370909,1771668805.55239
19083.568385271876,-0.15580561866152454,0.015363145215325329,9.472156119770203,0.016065690405064885,-0.024731164676662632,0.00596653283108376,1771668805.552551
17655.2907786499,-0.09612572180099907,0.0011546079808906831,9.526040534227812,0.017071812748448642,0.0024675796225945546,0.030549979318180043,1771668805.552711
3017.676927110112,-0.05952868347810414,0.04964389711276575,9.504595545020846,0.012000504139665847,0.028816691773174752,-0.0029184073546820143,1771668805.552842
10216.386726933815,-0.04166918520640755,0.05373196183729519,9.549536970189616,0.01748571770426316,0.0016205405675714711,0.02273897990246891,1771668805.552984
23854.46486573419,-0.14090232486382331,0.05731195482557721,9.530465999843607,0.02292609252839433,0.026438699005284092,0.006236697695630905,1771668805.553247
11811.500486345247,-0.09272983065927115,0.06466199531549696,9.48386576121972,0.008687182410210695,0.012293559397230059,-0.006280332927285089,1771668805.553442
1462.6140700285466,-0.09474457031215247,0.08452793651685891,9.461572505363726,0.012150721296136579,0.038972211856337154,-0.03669683682096762,1771668805.5535738
15597.095939375025,-0.07253426711471903,0.05060285250780645,9.439613607157252,0.032668219254842056,0.0481337988708186,-0.036919890675725854,1771668805.553712
20665.33258260611,-0.11081260487229401,0.058747023988770235,9.438394239538342,-0.0015128012179633562,-0.0014798381021175963,-0.008720029273077187,1771668805.553857
6160.152941863335,-0.09140960274824068,0.061190848060151404,9.514615358423091,-0.01917047809047212,0.0016893592440587447,-0.003604370267750932,1771668805.553996
6870.93848198928,-0.09693679677909317,0.05268514539101009,9.502615086413629,0.005626275474143514,0.05606528672536498,-0.019635788337569193,1771668805.5541272
21175.08242360564,-0.056598446513649495,0.041035289095553776,9.473450591198079,0.022112882937397434,-0.0029738151849365273,-0.009186279358834565,1771668805.554324
14899.631818153179,-0.029788347205987286,0.11278624631320397,9.555013868670198,0.02016474109356187,0.007388390866666934,-0.004739515481754234,1771668805.554458
906.1652053003764,-0.043420815597968995,0.10019374548770754,9.481120013930177,0.031995484554069295,0.025170231379825977,0.03952862017405871,1771668805.554589
12392.690591314777,-0.10576436873535969,0.06001214360233037,9.491644847656755,0.024661905661045546,0.02631078077045482,0.0037564422388586777,1771668805.554736
23622.96861886999,-0.060091570142399506,0.06037947562532033,9.51589795785296,0.026669522413430978,0.02849651942932774,0.016053118030429612,1771668805.55488
9746.66112911857,-0.07705642299901021,0.0654654238114675,9.507845027677593,0.0001834026992821849,0.025654056359503623,0.0039569249473330155,1771668805.555016
3772.295274938504,-0.18046660301589998,0.01886626050334911,9.506138834272795,0.02210179949944504,-0.009462091522405895,-8.719657486695965e-05,1771668805.5551848
18143.120590596103,-0.09275220889230705,0.025617806043710004,9.476687127363771,-0.011270612643527607,-0.005677197613603782,-0.0003507852966831885,1771668805.55533
18545.188470010926,-0.10154270962991822,0.026370758704127324,9.523980110614998,0.004081328270477712,-0.0298339850085904,-0.004359853858212084,1771668805.555479
3995.281719644489,-0.10547051592455155,0.07230059879194661,9.454909762242373,0.049429960635726855,0.032869132353831994,-0.008899077256572496,1771668805.555608
9304.533597728538,-0.07263978915524058,0.04176892447880883,9.527733485826282,0.011061121994198203,0.024159794252414293,0.00039071263045354954,1771668805.555753
23410.43374035003,-0.1002193540462945,0.04183691079666221,9.542688859397773,0.04990640615880297,0.014705915531522602,0.0388800075589002,1771668805.555894
12815.753107508534,-0.06278563845803636,0.06656479569591915,9.473961505278648,-0.018837742123499736,0.013261674203299531,0.00987281379649023,1771668805.5560288
914.7306767068183,-0.10671072975292907,0.023181144226506845,9.551069790117623,0.03627451083870988,0.01913713344153734,0.0024009786194576933,1771668805.556172
14668.110501718005,-0.10936726537039118,0.02012701793540402,9.523418186754977,-0.0004941659766645038,-0.01666192994281196,-0.011162635543591511,1771668805.5563169
21614.35016836183,-0.08443521547149659,0.0672491329145008,9.503667199294508,0.024845422177007116,0.0035199844382407075,0.053066182518834604,1771668805.55645
7059.625429586075,-0.13653207055277555,0.05244667465208541,9.456932185521593,0.002461069595994124,-0.00859820765126889,-0.037049009315774144,1771668805.556585
5855.220512783122,-0.107434066300066,0.08216093116967992,9.503295922816568,0.06646620562634202,-0.011447383666257815,0.02078159955626603,1771668805.5567229
20194.605666978077,-0.06776265168583896,0.041088988052368096,9.520201069404141,0.005013586222208877,0.025523438680932032,0.004171254238699397,1771668805.5568588
15848.690637204103,-0.1242437322272774,0.05362554558833267,9.471914505848718,0.004300405366655208,0.01787470510840572,-0.005613511489755261,1771668805.557036
1504.5203313208644,-0.08988346167456371,0.08922029896040044,9.510666425942825,-0.0018251940254034886,0.017470513777752654,0.003223822596883445,1771668805.55729
11436.038998358319,-0.07226824218106999,0.09981238754803078,9.506659881834539,0.007585075287550673,0.027340454445789853,0.028317720641699663,1771668805.557463
23925.931129402336,-0.09680971561324858,0.055990891148936975,9.481140220575512,0.04378618860890968,0.04464531173995093,0.01575668206523198,1771668805.557777
10540.39314284381,-0.12684002432173172,-0.014664505133040597,9.501629068039076,0.004395500872916076,0.0015718192636254165,-0.013002929189896319,1771668805.558027
2759.4399995887125,-0.10122438052352539,0.031368441025071706,9.467573135769477,0.04525475965469251,-0.020705874941244314,0.009712177751578883,1771668805.558292
17239.83711928625,-0.09893254892949727,0.026080973050483222,9.501953066130213,0.00622714672629998,0.048806897623887416,0.0013419820960142263,1771668805.558434
19612.3913682899,-0.08025492442745583,0.07178660669868431,9.4750481869672,0.013314800499397763,0.012038146910537631,0.013737429658740743,1771668805.558572
5104.363964884891,-0.10815661360923615,0.03882886002543235,9.491707819676781,0.029257907079626395,-0.01164655989835917,0.000568767605885268,1771668805.5587032
8481.304584549567,-0.08259467040251477,0.03599208174683756,9.48904623083406,0.006084978563997095,0.023246044343564542,-0.0335612910149336,1771668805.558835
22773.927241907877,-0.10914642343054211,0.04761509171641677,9.47326930447454,0.015842568366444026,-0.0067881740537002145,-0.003957988747478384,1771668805.558956
13760.040256373759,-0.08027031489676967,0.049531615804539096,9.424009456999766,0.009449809554617295,0.013181732656457616,-0.011989279829989739,1771668805.559072
667.0131409870182,-0.13194550454136858,0.04772643344188527,9.49841369210292,0.00308816170995906,0.005265087267420446,-0.010273178183550691,1771668805.5591931
13660.911165943318,-0.06399515837658389,-0.0009670449921804017,9.430314445119397,-0.016364562943005225,0.05186348660877912,0.03203359045986525,1771668805.559315
22526.215326445345,-0.061971590881305355,0.018215929158652954,9.485667735422217,-0.017004889985252715,-0.001147622848017176,-0.025907930666977684,1771668805.5594518
8131.574331629506,-0.03581518851787709,0.01205271539670861,9.482038199878229,0.02403464240641985,0.03056433263676055,-0.021489366185493974,1771668805.559575
4969.082189139018,-0.06652528136055261,0.0861359412596957,9.53069875944123,0.029427827576685307,-0.002947711458256086,0.004506493669355111,1771668805.559691
19342.727555861296,-0.08821510408673511,0.060958516040045055,9.462092431939144,-0.017909749421976078,-0.01285417106883606,0.0007431435792199783,1771668805.559805
17000.664814344433,-0.08736772136264097,0.015321196783298621,9.448509085873308,0.021345209134783907,-0.013753181953910768,0.01468436094459312,1771668805.559925
2430.7058541230863,-0.07368219272856759,0.07699116917223711,9.501286496273298,-0.024874802189949852,-0.0008382266598531473,0.046576648699643425,1771668805.560048
10613.757204960431,-0.12241069750488809,0.06255007223663844,9.494960917048903,-0.0007016660689775771,0.03208827538388434,-0.0035009841306384818,1771668805.560173
24005.97715139076,-0.09267723897066704,0.07482855404593758,9.503298313988077,0.07021401119365124,-0.03945845535274137,0.02699769681233481,1771668805.560289
11497.979840769769,-0.05968163067294757,0.059814967932352414,9.520963437684753,0.01951016480929146,0.01668656766514767,0.028025498049363187,1771668805.560416
1970.4714335235926,-0.09223869581994508,0.061592350984297835,9.551480874787913,0.002854474312506371,0.02983409829126918,0.02077722723174131,1771668805.560534
16310.799010498544,-0.04668625375210245,0.04166111477670816,9.545099774231609,0.012846888032208379,0.02667740282965566,0.014062726750399273,1771668805.560662
20532.864774363945,-0.07264519243402656,0.05096546805417447,9.455756405535984,0.009553226367932257,0.03896898375486643,0.0025010899813244516,1771668805.5607848
6173.486536230196,-0.08442436318674418,0.06669677392590108,9.445030529251557,0.020307828178785646,0.03095188850651347,0.014152936764899574,1771668805.560899
7733.304272954512,-0.08200382255107169,0.0781605308237686,9.494825578700713,0.011108372365676869,-0.008484506611253047,0.011320774022014183,1771668805.561009
22084.08892487053,-0.11166303770082764,0.028002807804302535,9.504820677711542,-0.004021064505221471,0.030012998466589162,0.022589773681634933,1771668805.561127
14922.53103846857,-0.1013002069827362,-0.0004608105420280825,9.501016306876933,0.002761543577030039,0.008527269232111,0.024525384557309106,1771668805.56125
979.4984483638092,-0.09031242874520148,0.04346983445266084,9.512066831804432,0.007730859139111821,0.04560782594338401,-0.013526978642505141,1771668805.56137
13029.203336829722,-0.08520188463333016,0.058512484167600035,9.553338095408863,0.04061577775389923,0.027266193999238072,-0.00479857421160796,1771668805.561491
23474.295428643225,-0.04667735345446162,0.030571833204653745,9.551561960683197,0.04578616591678645,0.02553796400826281,0.02788965518400954,1771668805.561616
9306.475238165216,-0.16163232704174016,-0.04490828031347192,9.529237523275803,-0.005360437173756461,-0.010918134936966238,0.0020524967840863722,1771668805.561729
4149.640720017668,-0.08673507948871449,0.04209867957249012,9.483165133412125,0.00787627726772624,0.008989246530226272,0.0008406669393765341,1771668805.56185
18438.479479677775,-0.06947135363792083,0.08704976261322794,9.475882426182757,0.00039691295965508654,0.006178954767819914,-0.029874706958938773,1771668805.5619671
17930.647984730396,-0.08732003160316969,0.04611875233391579,9.458818951530672,0.017065488128508395,-0.03378611078149312,-0.009885397841590404,1771668805.56209
3343.5373057956763,-0.11058077106393518,-0.007799037843561078,9.50216128853868,0.03787738606459142,-0.005746109710113002,0.01905423027838095,1771668805.562204
9580.833347585041,-0.09205955295543793,-0.02118871338726684,9.539966431114083,0.00028392257534607063,0.0034467210757406787,0.003332813589479882,1771668805.5623198
23546.747135361613,-0.06819789105150656,0.02478378168308145,9.562192689013333,-0.005753346906581021,-0.0029070153657942337,0.023388737776031666,1771668805.5624452
12128.794459842762,-0.049558843549575744,0.03634110463647419,9.427659028421505,0.032153346639627406,0.0011627554719996678,0.003059642441660255,1771668805.562564
961.428731843998,-0.08272955258301502,0.04521725541562979,9.442517808400781,0.05105114914679737,0.05396243283425698,-0.0029985333190119916,1771668805.562677
14878.660189409638,-0.10328286310415687,-0.01568887169966101,9.500294640569148,0.00885259052667171,0.006148233850173472,0.02969628755571129,1771668805.562814
20934.940963523197,-0.0970033873294281,-0.005117932831765946,9.475896602227829,0.031784719843129534,0.021289150221627674,0.0038414766295072895,1771668805.562944
6422.193113978906,-0.07574594274904266,0.014449962639319313,9.484781628053675,0.015515893211142199,-0.013308824273659724,0.04254358799798024,1771668805.563086
6083.936706335477,-0.047707235570042285,0.07312728952439301,9.503558868428797,0.005678840582247397,0.012474123972813623,-0.02582421056542063,1771668805.563284
20360.36406152268,-0.07990626794610181,-0.02192232803718402,9.47642077136217,0.01083401716816206,-0.004393200829895594,0.010800898205799462,1771668805.5634089
15100.705469467433,-0.05847534809612137,-0.025170297279480374,9.465135633608414,0.006212214044953034,0.021696201205988197,0.021325809414213404,1771668805.563524
935.7085833268844,-0.08695470762417412,0.048475027676423796,9.47164431516591,0.01392258324385906,0.045141214590004336,0.01022495148287541,1771668805.563636
11283.584098660525,-0.03858401159849422,0.03540877052818009,9.503727312728191,-0.01911577063974245,0.01128627505169877,0.02636545779091361,1771668805.563761
23305.64425788465,-0.08029617961376095,-0.045246483566595934,9.511839669028292,0.021783547563096063,-0.023466766492757488,0.013190278560075468,1771668805.563885
9479.84344976614,-0.11251583320040875,0.05430820929137139,9.517800762357547,-0.01967218342903386,-0.026586995767582326,-0.013002076303372587,1771668805.5639958
2337.331904892852,-0.08076358295443424,0.08534771308380976,9.52254664658118,-0.03445590430209326,0.007652711768660804,0.011457557193125538,1771668805.564108
16642.365411293053,-0.10649706152763071,0.06173894584451179,9.514872535681846,0.0045632813979519385,0.003425592545248282,-0.003691269037181446,1771668805.564237
18310.855642968458,-0.04675267990244923,0.08481882349176557,9.513063057778469,0.020077709036640256,-0.01538348767683468,-0.017704792621446735,1771668805.564363
3814.199051028202,-0.01840989992526974,0.06076442365581617,9.486901588529562,0.006571631443570715,0.023747261028593356,-0.018740853648862948,1771668805.56448
7911.497751081027,-0.15703949334078854,0.04079363079920643,9.488475874633886,-0.018359300272849984,0.0029229260063384018,-0.020096187850084872,1771668805.5646012
22334.726373280475,-0.10455274233115851,0.06776610118337627,9.493432723157891,0.006962876192294746,0.036789660816031466,-0.004429940317722295,1771668805.564704
12716.66709958729,-0.09987381104469079,0.05838507827271072,9.498996956106737,0.002333532529597533,0.006162312483673706,0.030700079480232043,1771668805.564808
297.29123056871026,-0.0783301133325831,0.07561174603540291,9.531361034821677,0.004794096355448678,0.00974985418618344,-0.030649065820472443,1771668805.564907
13355.068345719696,-0.14477727208360253,0.0958426328335402,9.456979860291195,0.0018803519232832176,0.02678866481218892,0.0045176188690268385,1771668805.5650182
21609.552106308303,-0.11578356957122371,0.06487098657110053,9.489909787677913,0.012657033707782268,0.01403224126995294,0.013565768811033274,1771668805.565123
7178.75600172953,-0.06177289241270803,0.013124383564114278,9.49842915261527,0.018755686894508534,0.027298884632615563,-0.008399713000836211,1771668805.565225
4608.903761727109,-0.12458679721026064,0.01550125299461516,9.513221054603388,-0.010540037018099918,0.01713745975032141,-0.01579259308690194,1771668805.565338
18946.347424545158,-0.10045665605657282,0.011307748354853136,9.510197886118716,0.00932304755212856,0.0325518089786232,0.020621224357888285,1771668805.5654552
16017.324225502933,-0.0942229895545783,-0.01808612944814412,9.524816742731456,0.005417027817710781,0.009879825315644962,-0.002502936075105584,1771668805.56556
1562.6772698699983,-0.12010236801705579,0.08251423949525599,9.472058347421775,0.010134821635237679,-0.006959435426272913,-0.02242100174776778,1771668805.565666
10109.708753116081,-0.1419624261016278,0.00867419512527441,9.479925261202824,0.026117076298061943,0.030321614575159108,-4.3661016082726196e-05,1771668805.565771
23303.749499030746,-0.043820734440593784,-0.015037878230926888,9.50074746422027,-0.0009568689587775663,0.008447311855566091,-0.030527804784453792,1771668805.565873
10316.428452069606,-0.07321723036414159,0.06211346403178646,9.42561167884338,0.02292830908854226,-0.018906749450477368,-0.02157564170904284,1771668805.565978
1292.0568413454232,-0.0724337436916115,0.049083728052835104,9.482255110309795,0.025808745904981112,0.035129119336619885,-0.011744773581550023,1771668805.566093
15310.354656776699,-0.0762276791507536,0.08231609213459884,9.483289218792734,0.044329617332185996,-0.017437881475541237,-0.0057470530700349754,1771668805.566198
19140.726662738307,-0.055581670155383754,0.06415688348014992,9.52443863714008,0.025762072756598267,0.014733068614331003,0.0008118883092184369,1771668805.566304
4566.984970916772,-0.07190874227468015,0.08121595355167582,9.458307658193151,0.0009470455455970913,-0.0195256589213312,-0.01683325372852907,1771668805.5664158
6203.032810308381,-0.10949687972977074,0.03875360993288887,9.415216705318281,-0.004339927224785007,-0.020533551422071836,-0.014303172291166035,1771668805.566522
20594.799744749736,-0.10554434524116495,0.032246712706775656,9.457837058270638,0.00040947966570656726,0.014600792655744455,0.015851528652861716,1771668805.5666308
13464.698828955581,-0.172817551779211,0.08547479763194771,9.512315094202094,0.04732657531755557,-0.029874876421865718,-0.025430896854497124,1771668805.566736
349.70786821424093,-0.11152165516326028,0.09495072710745897,9.50480017366384,0.00883589229724526,0.011820230837090205,-0.015695349584959134,1771668805.566847
12172.575502995636,-0.023353635640561008,0.05515318310370137,9.523149804218138,-0.0060056417068253725,0.015110566631927223,-0.0006592551901692045,1771668805.566955
22629.136285436056,-0.09497213410289702,0.01512838443492604,9.467586371254395,0.00690864518495908,0.0291761567548514,0.013143565167054,1771668805.567056
8258.300994895633,-0.16371903081616979,0.1601304853901906,9.51354933656262,0.012912950653629055,0.033612362441043195,0.0035843112617034443,1771668805.567308
3317.7819204841244,-0.13808634089693989,0.1141744989970984,9.479232784736931,0.0156384310267402,0.016759684602257945,-0.014939896174871861,1771668805.5674188
17612.3959992074,-0.10150768433435751,0.024332505519943985,9.529577234564513,-0.014350881410854976,0.008912019069745886,0.005207779213437819,1771668805.5675268
16975.87869293941,-0.11189057889597946,0.06397612980235425,9.510754828862638,-0.0005094620009556702,0.013926608720667696,0.030196205003585705,1771668805.567632
2548.851655839381,-0.10197070364542898,0.04093391633541118,9.506239063927596,-0.0015233461942811405,0.018478507964917765,-0.02235968963716795,1771668805.567743
9235.936991548742,-0.08843169033219893,0.010393023918805958,9.509318594167034,0.005308857355176008,-0.012333718281045021,0.020917751812903083,1771668805.567847
23676.311766746276,-0.11911175048511038,0.08055735764565419,9.443409593156069,-0.006712897887471471,-0.0053935219045878864,-0.0065057098912543595,1771668805.5679512
12477.499673391652,-0.09825870025726842,0.05484294498063838,9.446387361793333,-0.006658860529691254,0.029630837897291516,-0.001906542260069857,1771668805.5680552
1176.7634283522118,-0.13559939652885045,0.021836934303060752,9.440940544065388,-0.01986021833578757,0.027696035885879513,-0.010027434543891295,1771668805.568157
15050.214881359605,-0.17413850609825668,0.071319225508392,9.473532285144458,0.017667840971917478,0.04003958604905942,-0.025232178233427632,1771668805.5682602
21135.998299619816,-0.16852397585153184,0.049370974895912335,9.481964515837248,0.03286797705752404,0.002647840404507948,0.007414498623688859,1771668805.568364
6432.63199414261,-0.06740726070603435,0.13322143626098884,9.557896796885734,0.003651448594295827,0.019107697978319814,-0.019305263576344746,1771668805.568468
5812.369594215288,-0.08612517933987911,0.014305331547796273,9.462874078201972,0.004862469428131997,0.01455041701592512,-0.008322334367614691,1771668805.5685692
18717.6790775536,-0.13414415643670474,0.026620649220648954,9.47947963497096,0.029410623464971405,0.014048804046675942,0.010913235513705521,1771668805.568678
13353.183531604423,-0.049393144666502645,0.09070847390061935,9.66433609317559,-0.010086574738188348,0.13955858140334065,-0.008007680068940337,1771668805.5688589
6575.6014729126755,-0.06433219073424967,0.10028368056736281,9.716860517361848,-0.024446683022062394,0.5075598099634662,-0.03184938352247593,1771668805.568995
19772.48473642137,1.8379080908562142,-0.04093530161334429,10.862647566322618,-0.09154947385129696,1.5670874409975712,0.17091803063124555,1771668805.569106
24626.302635346696,-0.5379038612449623,-0.09926107478330647,9.39472662764648,-0.2829511477211815,1.446473488964334,0.20863541263147467,1771668805.569213
13906.777679462855,-0.5564091150714542,-0.11521492773546453,9.367890300458221,-0.3129626692562697,1.1734485978659044,0.1361606129685189,1771668805.56932
5266.403756361156,-0.4532556225480756,0.0006167822935861632,9.808543647818933,-0.41311396594099925,1.0769882847255414,0.09233951701139986,1771668805.56943
18247.942639387195,-0.5446031884349571,-0.21985008939090864,9.0458972807286,-0.47105487549543273,0.9339788904353169,0.18530954655838155,1771668805.569535
5187.335773974129,-0.10037539230437681,0.023313595083284743,10.088129881466116,0.01560747459510749,0.0005798321709274852,-0.0037536018037800803,1771668805.539459
20322.995132668882,-0.031019177992603453,0.04447358074618858,10.054125924448329,0.046604088438600574,0.07485089337516927,0.012586894773884945,1771668805.53985
17740.9110340911,-0.045069313218744,0.03869201432974335,10.077394882459128,0.006674937732179612,-0.013145593759246264,-0.0016151543256077883,1771668805.540212
2464.4865694326836,-0.09576959569388761,0.07979001801494252,10.031818564396813,0.0023983960019598517,0.0016126941681477056,-0.04129590852816737,1771668805.540589
11144.88357708757,-0.04820398264472163,-0.01654979827316156,10.046833580198546,0.006564382849478272,0.017701891184647114,-0.001479383306419702,1771668805.540949
25312.24070415104,-0.042702146877918325,-0.007509952440939177,10.060970683459116,0.02990324910679289,-0.016261411596772978,-0.017452549776359818,1771668805.541307
12083.974549682107,-0.11059518707041725,0.07094046169855206,10.016393890539202,0.02152688261803702,0.04010126196696197,-0.025720559361897707,1771668805.5416892
2050.2004416417135,-0.10655983501054142,0.06430590156446822,10.025233095692775,-0.030650885812152015,0.018209045260712646,0.009132207997700058,1771668805.542038
17176.81145739681,-0.1483713931622866,0.0651385040868169,10.05677498998416,0.013607972127558866,0.0006191003897426942,0.003685663192103768,1771668805.5423949
21568.825197376496,-0.1305335904702023,0.044643102920549245,10.014243519107213,0.017987848013911373,-0.013577731036747118,0.0019271042499910457,1771668805.5427608
6304.413185558103,-0.14057838010952456,0.04519801488213072,10.049431912213683,0.011044220659905762,0.03327072165792399,-0.05140549132594817,1771668805.5430112
8024.8824577943715,-0.11942595361075935,0.11498170789348593,10.012938271682952,0.02562655125621159,0.002015020946583481,0.0023675972790581337,1771668805.543191
23135.352469731533,-0.10842698492604814,0.00966907227237077,10.055539190998728,0.050988136724772745,0.006203699192064097,0.0058833295573034496,1771668805.543387
15413.175926906666,-0.11796382613640317,0.0033337650562663187,10.025198571737851,0.01702631888071384,-0.0032870089806738057,0.00948469196800806,1771668805.543576
762.1603022847082,-0.04652619575247079,-0.008303177047153765,10.043699748639334,0.046605282718942105,-0.009016465798084879,0.027649730747245662,1771668805.5437498
13505.75502756056,-0.1449346888406409,0.1043780050879196,10.058962078738082,0.02096477454628359,-0.004677314862849061,0.008878609713616628,1771668805.543933
24461.576082900217,-0.16155402529881127,0.09637946686172948,10.099393253243733,0.027122515645561746,0.0029723337653987077,-0.005951753203997928,1771668805.544123
9453.608684576939,-0.08730992954055725,0.06963568563214269,10.082001781253384,-0.006661889680992666,0.0015904046652789518,0.002647395158731177,1771668805.544301
4192.8858869324,-0.09487231144215288,0.07950948209813022,10.096224363431562,0.048417942338194395,0.011262763071964584,-0.011849944042790004,1771668805.544478
19330.587071799055,-0.09247754640739177,0.06387566466884721,10.031792095469582,0.0013102842306971013,0.013389596243298978,-0.012637554134079179,1771668805.544742
18731.3049119466,-0.10493065760736334,0.0074994635874709665,10.021185841949144,-0.01662547711161979,0.006749361352071301,0.028577957146970104,1771668805.5449688
3425.71863345354,-0.12166891935439017,0.10404354586556355,10.00741798997344,-0.019239175201094062,0.019722965479874673,0.008454721506320786,1771668805.545124
10115.220668993994,-0.12140495804641638,0.09072776340572271,9.99664542857386,0.012696482728742688,0.016177373884429243,0.02678712473840776,1771668805.545291
24938.168356157683,-0.08842488369562468,0.050867621534915385,9.972937170991202,0.014713706908877447,0.004380601300120127,0.0020097706461896423,1771668805.5454552
12983.952689015357,-0.10974780636753947,0.07251587322798798,10.040641918912813,0.011699584583561863,0.0015750253662593868,-0.021585370848309766,1771668805.54561
1279.9996599301314,-0.09564973533452548,0.07001604765793693,10.047777726271287,0.0036443684543969322,-0.0026348556780291404,0.0018133168811740273,1771668805.545759
16114.02276246251,-0.1123889307520319,0.061675727037210575,10.012211604625024,0.029271522351766652,-0.000945717505923026,0.045846961341503546,1771668805.5459242
22538.090418167867,-0.10522897388098197,0.0500338840543206,10.049380965330908,0.030609774278474406,0.03617745708140754,-0.010399188394024067,1771668805.546079
7296.8410183752285,-0.14687263032494866,0.038961687686900455,10.015068483360636,-0.02437003273178858,0.011246419982527059,-0.005794225208190718,1771668805.546231
7033.440869927153,-0.06222909628097231,0.07891669000325285,10.04448436707988,0.02348773318576934,0.01809322201309382,-0.036283762745295337,1771668805.5463831
22064.520109803758,-0.051143722225235,0.0625340353917621,10.01667184264716,-0.005297190066309728,0.01629963703641344,0.0058260653451026115,1771668805.5465732
16396.56969550715,-0.08260087182504251,0.06710680341323008,10.037075545956606,0.0013026244432333758,0.024131521840202095,-0.02139798313660947,1771668805.546726
1266.9047168010745,-0.0818517957791919,0.04512711607924669,10.007979787454689,0.008942111780554854,0.011912668625310787,0.035629614785477944,1771668805.546878
12562.617332391575,-0.08897858290223337,0.04996573408763562,10.06226959511123,0.012711708523045328,0.07637482729668113,-0.00682839756278134,1771668805.547049
25055.813833643268,-0.08004223178083093,0.001316731730464037,10.052825386260594,0.038021206174436856,0.003683828263513386,0.004694951379717664,1771668805.547204
10461.13166657318,-0.1837400962442868,-0.0018044521740288799,10.005345584924394,-0.01441445931415627,0.03843741264637302,-0.037756357843014045,1771668805.5473568
3234.6722618067834,-0.21510716636468577,0.0349143140321843,10.018742670703869,-0.0035286675724686967,-0.007231676235107186,-0.008881727178570735,1771668805.547509
18366.32622044651,-0.09788433560551893,-0.026472305834622453,10.102430988370488,0.03285806890738797,0.03823139560742968,-0.021146507855081514,1771668805.547677
19728.744845737136,-0.12808286231068441,-0.03331451513556778,10.05427764725674,0.03002193734978157,0.029560958168186414,0.0071741798806372065,1771668805.5478332
4434.233963975071,-0.15091565733952492,-0.010677509993365145,10.056104718870081,-0.002818713441882052,0.013898031363679954,0.02343946821457218,1771668805.54799
9130.878609893338,-0.1680049977559177,0.02190565596555234,10.015856820467423,0.026605752344405934,0.015541389073882972,0.013946045804772263,1771668805.54817
24296.72410363744,-0.08377267242806875,0.031180019693575034,10.060583875229721,-0.024561173025580363,-0.03972542199610653,0.01004721809806283,1771668805.548337
13965.27235780232,-0.13644278598088586,0.017373783159539632,10.072852038311447,0.01679473756529808,0.003052122966554755,-0.05827656523455499,1771668805.5484958
860.6802313187937,-0.1258889972546149,0.06996582031806467,9.979536466099653,0.01737464224393804,0.013925507009981424,0.021568849263544104,1771668805.54865
15092.427296809483,-0.13157908868050427,0.058459120109698254,10.057467954043771,-0.021916562025644862,-0.016188835622223296,0.017423852613712588,1771668805.5488288
23453.092269078734,-0.07522078013196522,0.04252523650435811,10.048555531077126,0.031894249200060884,0.03304468552520923,-0.0440218404328207,1771668805.5489678
8262.109717070705,-0.07790711502432011,0.06695147825469483,10.03176368465184,0.05231489798040219,0.0010555050795878357,0.00207540197817302,1771668805.5491042
5963.595264842207,-0.149559532759926,0.0503813401281942,10.046152175928876,0.024721013785534058,-0.008943051918417351,0.0007682631397702913,1771668805.549249
21063.060188831565,-0.1500577540541059,0.03649494190699332,10.065207534222699,0.015384922014122495,0.007417911893226045,0.020631377804560373,1771668805.5493948
17499.555707029846,-0.11700848117806989,0.05278169877024195,10.031716406700655,0.02888442600735586,0.07453453406402229,-0.0025739513667693958,1771668805.54953
2143.6932650109275,-0.09080328692931336,0.09980848600867026,10.090519659902494,0.007671852921335844,0.03233593878399832,0.01156145907651096,1771668805.5496871
11677.797721803818,-0.06550426158812711,0.018251403278083896,10.106943869955199,0.014594214233692754,0.04645842492233381,0.016226857007864134,1771668805.549898
25286.068075105664,-0.13860179637816178,0.07318309946968461,10.025670173166295,0.0014968936125787566,0.006953963626258268,0.005484107654407516,1771668805.55005
11456.579675178065,-0.13318566465768505,0.04661297487669672,10.019146705524019,0.029229991203168163,0.005219880791999867,-0.0020844935975235113,1771668805.550205
2296.5113526945734,-0.06482952159970083,0.010427350157256913,10.016645959422322,-0.011209552774462688,0.031408437256686586,0.0021846794838303514,1771668805.550346
17384.94858954388,-0.11433485493917207,0.056671563839123695,10.015598008650269,0.04893154691513363,0.025222497575911444,0.026351555143107712,1771668805.550488
20763.420114630186,-0.10707889416354098,0.02289269035026551,10.013506600841158,0.021178571254419624,-0.023707390348390093,-0.01087741493663498,1771668805.550632
5490.980435417847,-0.11569700982096207,0.0003995440930528974,10.078369709349207,0.018328097358408478,0.037680744716497155,0.005658775925523448,1771668805.550883
8296.330291522645,-0.07977914989191841,0.01773742755853077,10.0734850199014,0.04762999953288382,0.04195977698602471,-0.031219647913207152,1771668805.551195
23409.809426597487,-0.10232685108142836,0.004490105040132187,10.081671023175259,0.027355492963621476,0.018464247622022964,-0.024221587918763665,1771668805.551369
14832.992137430248,-0.13862944327748375,0.02115159509692094,9.99483141390223,-0.02312865069493952,0.015775499225852932,0.014114327620769375,1771668805.551577
679.7451042132301,-0.165883157684435,0.0566537390980525,9.997515675627975,0.008263759780771622,0.011367192069873787,-0.010061515197428553,1771668805.551733
13996.443732444443,-0.1467029776097761,0.013043532234512987,10.006781394015416,0.0004987924833075011,0.03279771459344025,0.014850641763954411,1771668805.551899
24223.252044191922,-0.12469827945023423,0.0432132905574254,10.06646969371027,0.026116937173263854,0.004633880845662661,0.010128822494668375,1771668805.552068
9199.244712839794,-0.13921748435722678,-0.001003313213186049,10.060214225117033,-0.007932673520984911,0.0116196133124365,0.031168768513682613,1771668805.5522282
4948.036282625437,-0.1765984713124061,0.026081373926175766,10.073044806829268,-0.008625973919922371,0.0320332104704843,0.00963902532208694,1771668805.55239
20137.983878270406,-0.14282512732500946,0.027765056508353807,9.980839645351269,-0.00033863234200520075,-0.0015233192582640664,-0.027164551495662416,1771668805.552551
18630.742599216654,-0.0734473487004724,0.03476504646091936,10.06119845465267,0.006044172524698913,0.04068792983870375,-0.04745677270800889,1771668805.552711
3184.379268971648,-0.08160851013715709,0.04153443626022505,10.04855159531401,0.010683969602197222,0.03151594924093593,-0.015202899880908177,1771668805.552842
10780.87579494214,-0.06370400652415045,0.08151840260343765,10.067386200647245,-0.001767893909929139,0.026582879615754902,0.0031475902226792735,1771668805.552984
25172.469066758997,-0.13644140105756028,0.05085655766282323,10.053593384943547,0.039383202063213586,0.014302533246910559,0.017632745543624474,1771668805.553247
12464.05363530876,-0.046294975375179376,0.07028172201489669,10.064860007883587,0.003498306182072174,0.04790151304131714,-0.0035621030231585875,1771668805.553442
1543.3865241275143,-0.09516690164839806,0.1314561364000264,9.986282874991211,0.031461728674702226,-0.023839433975604972,-0.004421912511138192,1771668805.5535738
16458.890800246474,-0.09123606444902518,0.037368040175087366,9.974571062041635,0.038321149606739484,0.03364545774633779,0.023087706839595594,1771668805.553712
21807.104566634018,-0.08054785246524254,0.06592901789173315,10.000832398871795,-0.01390603556763496,-0.017712354190765257,0.0025150877496089605,1771668805.553857
6500.509564904297,-0.11033693951946348,0.04552350605262739,10.028621823908525,-0.027101247112020076,0.010822925331029376,-0.02592501987099885,1771668805.553996
7250.587290514093,-0.10884401591300465,0.05142463142008637,10.028933848124277,-0.002533715011553256,-0.010546050445659877,-0.017982238163089515,1771668805.5541272
22345.037207819856,-0.06228751956144428,0.04812448065825326,9.979325275538569,-0.012974428356453745,0.029777612097019398,-0.005890952115518157,1771668805.554324
15722.884142951661,-0.03954244353434971,0.10285329037780558,10.070854143680783,0.012046026031008647,0.01730586935602859,0.02070663391116303,1771668805.554458
956.2301692450777,-0.09159769628042702,0.10823285454218068,10.038078741650596,-0.008171648624767556,0.05487507910392843,0.011289205427620921,1771668805.554589
13077.43366231699,-0.13058251624373046,0.05075864314079839,10.071848612299249,-0.031010960222887615,0.0262569736372613,0.0015441670191991283,1771668805.554736
24928.14597321811,-0.12870967093504196,0.0722707562955242,10.052934481782305,0.01983018099223283,-0.03521104992410709,0.007880086057065774,1771668805.55488
10285.194645417616,-0.08336817469410539,0.04677953743611353,10.066975952368564,0.0014626455575788677,-0.00545459637722395,-0.007401860127056829,1771668805.555016
3980.7027720451547,-0.16544176460708956,0.048120595157497476,10.051510940736922,0.012261741751916922,0.004648813610841215,-0.0014769348316719469,1771668805.5551848
19145.547628733948,-0.09919633558309708,0.04488711606373209,10.003329809780949,0.026408536866328113,0.05050090527981214,-0.02841349345290566,1771668805.55533
19569.889246331397,-0.07921273310478083,0.05631306674220209,10.026350393305282,0.023674260506585748,0.0435203104572026,0.0011452025707964272,1771668805.555479
4216.017200171641,-0.1057903842053981,0.020644198691674585,10.03735963217054,0.01660776590600814,0.06431805699798003,-0.022307838227849867,1771668805.555608
9818.627849613189,-0.10215506186366607,0.06224370931535351,10.128779653982752,-0.018300320974176706,0.03048106597593526,-0.0477270362040339,1771668805.555753
24703.924000589817,-0.10018626115504584,0.030207538224601767,10.101316269486198,0.01548600573731827,0.01644344043870376,0.0259697378186989,1771668805.555894
13523.85909393308,-0.022381543563633366,0.03196407883690239,10.007397780781673,0.011006191351796157,0.01863334398038183,0.04606312464604722,1771668805.5560288
965.2578259654196,-0.14712964176159,0.014154496904565828,10.052860909703792,-0.010446759078037788,-0.04736909596376541,0.02876867560833953,1771668805.556172
15478.534309199269,-0.1339162710027282,0.01849915787639846,10.056704974484013,0.036104655141978234,-0.00223979065094823,-0.05862834539641253,1771668805.5563169
22808.560715679858,-0.12001580740559335,0.010033092083721202,10.012444499500804,0.006708059241103641,0.016384377807926193,-0.026735523578252957,1771668805.55645
7449.713115818892,-0.13596949345982365,0.0751343766854111,10.018581889105997,0.049591466392062605,0.014221826158876991,-0.01124220372638817,1771668805.556585
6178.768940151406,-0.0715387325037599,0.04378244763102189,10.044218269050939,0.030565650521580456,0.026861506909614027,0.010283235373494709,1771668805.5567229
21310.369357802916,-0.06956485453565618,0.03363956656855006,10.016605812562917,0.019053613020611333,0.03078923315960605,0.030780625187996107,1771668805.5568588
16724.30704897828,-0.04636752924240238,0.07317211251827342,10.040942093562714,0.020958394706760555,0.04175602586044013,-0.02140380266275836,1771668805.557036
1587.6450508334126,-0.13519951866179516,0.064379693756064,10.0825609098116,0.014788959838999078,-0.0009501580300796609,0.004787991821771647,1771668805.55729
12067.890654696848,-0.11226050742624998,0.08939169725354061,10.04669469390503,0.0054455109794444715,-0.020343180073172602,0.0031619309155743046,1771668805.557463
25247.845184833233,-0.1118552575508,0.11955842357266916,10.037246905749441,0.016213831065150078,-0.00809814142685872,0.007017851424795448,1771668805.557777
11122.73963766702,-0.16076161482048099,-0.025990602265858382,10.0408694065475,0.012790341587525228,0.017264544840971133,0.024415556870601977,1771668805.558027
2911.90589282532,-0.1550388155097081,0.03713402346354454,9.99699052714817,-0.010817800180349385,0.016687922658700803,0.02443953776198642,1771668805.558292
18192.353243024532,-0.10467627165117467,0.03496927186615249,9.999867745499747,0.005281224777266925,0.030431945963199425,0.015881536651794537,1771668805.558434
20696.01245571368,-0.10732456731649184,0.10674821864118132,9.994932874452864,0.024257797198883855,0.005726284252064859,0.001064242389831426,1771668805.558572
5386.416434386344,-0.08678347976910039,0.04839048131561724,10.010895728163458,-0.006535255992549978,-0.007038356287561163,0.011840030102040836,1771668805.5587032
8949.877613812303,-0.09183381645013346,0.056546712627982984,10.028907866127655,0.015903227620783104,0.01706166317961203,0.010942280971599353,1771668805.558835
24032.251696944502,-0.10547054357465328,0.024821210941495017,9.999634906608238,0.006339468831429199,0.022201891882000693,-0.01635659863739217,1771668805.558956
14520.30948651009,-0.07101585786915401,0.07210401600706552,10.03991772140767,0.006827646881189134,-0.0054416158453687614,-0.026263191754109058,1771668805.559072
703.8304755472732,-0.09053982103436144,0.08187116995678413,10.051369986319193,-0.006127017067313976,0.028178854652959898,0.003720065743437945,1771668805.5591931
14415.713964101411,-0.07411472005052075,0.061161254969380616,10.005414591317178,0.04372380329329681,-0.00899446073327156,0.019110108097130627,1771668805.559315
23770.831639523803,-0.019972138421033722,0.047153571080366004,10.05987197323616,-0.0071920653103756315,0.01948727286943784,-0.027186204346845145,1771668805.5594518
8580.827428108327,-0.010842858098296207,0.050172682305420914,10.053070288170412,0.06268209901466043,0.035946936657885654,0.0021181143696277493,1771668805.559575
5243.625810199396,-0.08666149760978738,0.08408637359554073,10.080364851212847,0.05611048651622993,0.006653925993924236,-0.014420002438761861,1771668805.559691
20411.46491427359,-0.12283001232668236,0.032826952675141276,10.000135458945572,0.013492302533995878,-0.03415251273763886,-0.008431647032788401,1771668805.559805
17939.96915500815,-0.09151146399708306,0.01418539644726286,10.048531881828405,-0.011785284264577423,0.0177599335292171,-0.007069095689532968,1771668805.559925
2565.0169798716634,-0.0828672454863641,0.0890089237078687,10.10835754717403,-0.009404010120761684,0.024361987561490273,-0.014035025913343614,1771668805.560048
11200.15579454126,-0.11602974818215722,0.07793313201042763,10.067892816855391,0.05311407353511584,0.011238971770703451,-0.02118247266331827,1771668805.560173
25332.33582332696,-0.14574384185634037,0.06523432611791591,10.027886677590608,0.01773481870766632,-0.01574376300298844,0.010217613341750961,1771668805.560289
12133.250902877468,-0.08277665063085017,0.09088892128933086,10.084765779164126,0.06302806779760706,0.02087333252123512,0.015748706216485785,1771668805.560416
2079.373984308979,-0.07265864840043296,0.11402919305679045,10.077919582538732,-0.00011413200211337074,0.00020659283161747602,0.0015491501530930864,1771668805.560534
17212.014282320655,-0.0669717260581427,0.0972669397265554,10.125626448482205,-0.03981343444401228,0.027457834644595294,0.03344563440430192,1771668805.560662
21667.356395451458,-0.06010434034038718,0.06692139082130712,10.002522993444241,0.016306850255614545,0.020695996965872366,-0.01950046709137136,1771668805.5607848
6514.571957362522,-0.0799791984981357,0.056836895376847614,10.01968537387468,0.028643224621914064,-0.022730657986715926,0.0015006130902096783,1771668805.560899
8160.546489540097,-0.08252141011158338,0.03127333421013388,10.047543126789227,0.03036103016086977,-0.007239649724148111,-0.010130347675845103,1771668805.561009
23304.222961517193,-0.12596352466062974,0.01299047762606335,10.07611764103951,0.02505502978770866,-0.021291671416958136,-0.0457524019716067,1771668805.561127
15747.021342354263,-0.0794975430937621,0.02883621620124575,10.064547910316819,0.0017638540584156604,0.015250034191009045,-0.013487570949435672,1771668805.56125
1033.6473570018472,-0.12297572592859253,0.08432029312071491,10.050269294731685,0.0012219818337206544,0.01669996343691654,-0.00949623792879339,1771668805.56137
13749.086841067407,-0.10325952690160202,0.02725164643418725,10.08247915329997,0.03400939734723054,0.01977425993620642,-0.0014406868025128258,1771668805.561491
24771.264907708202,-0.0657681798722214,0.04673887823668809,10.115709806385794,0.007434470378335752,0.014516801891320331,0.002618783416760184,1771668805.561616
9820.63816880055,-0.11099632774075616,0.02741933949038551,10.044082897378964,0.017329025357393273,0.018828862801389706,0.006676834436024052,1771668805.561729
4378.894857849902,-0.06208058378293602,0.08679664131815654,10.065444001804968,0.017071875947052114,0.06252837583141548,-0.0034632515978494987,1771668805.56185
19457.261573452455,-0.06296581682181954,0.06698871217538216,10.032047598463743,0.03738483668384597,0.006852643814200617,-0.010477205963002565,1771668805.5619671
18921.375628444468,-0.10424012154544135,0.05620784623568741,9.99360119791148,-0.021436598990897903,-0.01873378526072073,-0.031113046758398065,1771668805.56209
3528.2508616241257,-0.11234941265711326,0.02691621713358082,10.033452498533476,0.039947198509650235,-0.02322645095372939,-0.005148028308139386,1771668805.562204
10110.243397905164,-0.12458091292955845,0.03646806741407219,10.07267168507226,0.008563967455438554,0.038467181389229964,0.0403632796505726,1771668805.5623198
24847.705944510773,-0.04991954491713461,0.0018197761172615466,10.122960415926242,0.030485477947940796,0.015662878820796658,-0.004190997906237435,1771668805.5624452
12798.882549351853,-0.07398246913981135,0.01791881314167062,9.951937291872856,0.015205583056339216,0.04064771597060321,-0.0033255994530577595,1771668805.562564
1014.5661261709973,-0.03751026042387539,0.03104829036847832,9.956469556306736,0.006734361492010184,-0.017372623105613463,-0.012549337355952796,1771668805.562677
15700.738837712965,-0.11472088492747931,-0.009528717910448533,10.061542369410198,0.003924213491682533,-9.418109275190387e-05,-0.002319944689716296,1771668805.562814
22091.644350434213,-0.10298735252496219,0.06352727107262127,10.026036226747674,0.027017135315941194,0.038208405884973776,-0.006859807635911497,1771668805.562944
6777.022608907131,-0.12097452755384316,0.011249562369173223,10.034927490057775,0.020932171337681615,0.02819045787352878,-0.005734734743044483,1771668805.563086
6420.067570542613,-0.06580604911001235,0.06871113930904138,10.00352536973148,-0.008013292170567754,-0.030167503042225284,0.05022523723611998,1771668805.563284
21485.34193432796,-0.09987861101226203,-0.00912521907175731,10.017350900524908,0.02835609193700639,0.01265908670162888,-0.02250237474793812,1771668805.5634089
15935.044730491865,-0.01381253241953334,0.011219504698104208,10.055548745851816,0.020638593182589343,0.022443988426539958,0.011517388593919365,1771668805.563524
987.3913244359629,-0.04436158373415368,0.04320214738670021,10.054693634129395,0.012679336034120373,0.01458126247943846,-0.024627588454916388,1771668805.563636
11907.00773269315,-0.02983300803134215,0.05957098929595215,10.030766110114532,0.014309495931272028,0.00468153821026078,0.015644033816969157,1771668805.563761
24593.32285205731,-0.09037710861275255,-0.010226553352055766,10.045601139568095,-0.0012735816889313284,-0.01898427205035979,0.002221716379123111,1771668805.563885
10003.666423848092,-0.05502658705171446,0.06761947113541,10.047366109123958,-0.015401358226454711,-0.017035018397223732,-0.030136833184616612,1771668805.5639958
2466.483647641299,-0.07565706754864247,0.0740093656429013,10.07680161322852,0.023201128842511215,0.033506657456406436,0.030016198100139665,1771668805.564108
17561.937835056036,-0.046221418467017134,0.06323123998657865,10.028260364617084,-0.015057715261277459,0.019566698245524927,-0.0025228499436106824,1771668805.564237
19322.520717186562,-0.061309893809470536,0.07815327906274779,10.041806737749818,0.03775672527759175,0.0009991260874730845,0.0020455886204168534,1771668805.564363
4024.9776389189597,-0.04871329317845292,0.08629112469006919,10.046375563589363,-0.004982869006239726,0.005714104818428516,-0.006045399357645678,1771668805.56448
8348.575383886062,-0.13635254160650623,0.017195299162120016,10.030923278050025,0.02681003500472931,0.008443652912576937,0.017467508740478838,1771668805.5646012
23568.686184390015,-0.10343624314028228,0.028639093721128595,10.068342871528245,0.027672306116405178,0.039764824548977534,0.03617694401044294,1771668805.564704
13419.264999989957,-0.10133536564454013,0.0464625487113081,10.044268534896315,-0.019176760397522766,0.004953738545944183,0.0023790834459474814,1771668805.564808
313.7282375227027,-0.034945959772679815,0.049844425690496345,10.044510224717028,0.013909915026987966,0.010352706542044416,-0.0192824747223359,1771668805.564907
14092.997889168431,-0.1421699254772668,0.09017939923173064,10.042538891515212,-0.0029390981141510807,-0.003976963582236654,0.004466897526013416,1771668805.5650182
22803.555464207173,-0.11082953684113041,0.06426963634223899,10.028983994342287,0.043267803774611834,-0.0021215908461347916,0.03700016111220217,1771668805.565123
7575.399075841924,-0.09484121766720131,0.015728302540889378,10.107425802771978,0.031722237022874855,0.001316267795812099,-0.01015809380028409,1771668805.565225
4863.569645613387,-0.10516888730758592,0.03700824436018198,10.065718692755667,-0.016345822236283048,0.03053413372355983,0.002308491673365546,1771668805.565338
19993.193876190755,-0.08686458952945457,0.02205424946303186,10.073518193353744,0.0038711779610286156,0.02803745712058716,-0.0023131070697937936,1771668805.5654552
16902.35554505732,-0.04122813498001705,0.05602961071640066,10.072798631588425,-0.012059442787129695,-0.01989180788335251,-0.008157088839732962,1771668805.56556
1649.0063325736814,-0.13885306843202766,-0.0026205133427128543,10.011747807123779,0.01609440118187162,-0.009579698072889357,-0.012435635221766203,1771668805.565666
10668.272258054232,-0.11514571297473769,0.0843295170088155,10.018365575876715,0.01642253693790547,0.036400040231684715,0.017839593600033968,1771668805.565771
24591.287140342254,-0.026486934071997,0.008037976073687237,10.04074277389379,0.00675422032227039,0.02139607665106154,-0.03330964276572151,1771668805.565873
10886.443817101945,-0.0716160241997686,0.047598257551029935,9.996880822466103,0.01846150518432124,-0.04711661202416489,-0.03717898611451354,1771668805.565978
1363.46344424767,-0.037143969522344555,0.035586704036681405,9.998204004593655,0.009567123817575353,0.01115164580338364,0.002754096397118312,1771668805.566093
16156.221115683098,-0.07649858122791207,0.06534677754062196,10.054410450079393,0.01499329383977519,0.02341955480399377,-0.019115546342182033,1771668805.566198
20198.32990125097,-0.07653894975201883,0.03388389476527124,10.019912601064851,0.04022728304053568,-0.022354925731273467,0.00203038164347306,1771668805.566304
4819.319124162813,-0.09230211346366764,0.0866069998547313,10.023134315941832,0.007246260813333727,0.015222939120867028,-0.0491267228787689,1771668805.5664158
6545.742988164899,-0.08543154926703743,0.009597761705905284,9.990605004309154,-0.020861366477621466,-0.006349911062664438,0.022237717099883605,1771668805.566522
21732.676512362003,-0.09393988945933118,0.04398058246829749,9.993327419922252,0.023674816229737376,0.0014674055451541653,-0.007193485540435346,1771668805.5666308
14208.593023042831,-0.15674322082618702,0.07556743755997695,10.077585723387452,0.017982154348958296,0.025880007194294043,0.03533965431623965,1771668805.566736
369.00199053899524,-0.07755403711015918,0.05942029088090705,10.092457072538492,0.012280064814959064,0.0007569065949698875,-0.012854163067557689,1771668805.566847
12845.161346700213,-0.07641334184125446,0.0815895928604372,10.06177600216777,0.010395941918715443,-0.0010756721770486346,0.054833438802384414,1771668805.566955
23879.409671821242,-0.112276523393996,0.017759133727639247,9.983881628094428,0.005982011303865525,0.0005433420614350268,0.005758640983286764,1771668805.567056
8714.581969623458,-0.1611455107941397,0.13556093731670676,10.037099516193841,0.020065427886717946,0.005841506150344721,-0.031103219516796655,1771668805.567308
3501.1173243773965,-0.14842318413355687,0.13897168121107611,10.061028495653444,-0.01743746648835158,0.012851005857668893,0.008962767847649303,1771668805.5674188
18585.489633819343,-0.11975086676105173,0.01809437999714471,10.124441940229097,-0.008852270043344242,-0.02175835778168812,-0.011503444832170332,1771668805.5675268
17913.842568299086,-0.11964897182357265,0.02248144168358782,10.077452176994576,0.01791094448351676,0.01602727203404434,0.009903707079938961,1771668805.567632
2689.698063689054,-0.1175088591214151,0.07046056777480526,10.05325524471981,0.011159163728575797,0.007262712513330483,-0.006950017391694747,1771668805.567743
9746.216861832565,-0.11305175020249385,0.012356452057358426,10.066587940825118,0.023475003290387368,0.027087460619800455,0.0063390465698077705,1771668805.567847
24984.449254009123,-0.15456569676970125,0.07998632041216142,10.011082409737867,0.0045553618351406085,-0.009287113735532213,-0.014919361628019406,1771668805.5679512
13166.911300989757,-0.11800146287219801,0.047920392972349284,9.96507290198701,-0.010694557056504997,-0.0035034373927590582,-0.0013118881751476947,1771668805.5680552
1241.7530384406891,-0.1450543391118799,0.0033863763640743596,10.027005542644927,0.002742088561212205,0.017635708663492115,-0.05174697178115083,1771668805.568157
15881.731120801356,-0.14139921594795238,0.04041145903425082,10.0395051115088,0.01433881975874141,0.02687140219971777,-0.00763975056125333,1771668805.5682602
22303.76293255924,-0.13085854493201454,0.06603911636151333,10.05742153604264,0.019409426576062542,0.0036134220687042747,0.0008853931294563442,1771668805.568364
6788.050870653163,-0.1103383282815879,0.08462291095966783,10.095051920565048,0.018456534308010985,-0.014877851556472449,-0.025217138763808745,1771668805.568468
6133.516433585227,-0.09534342350009996,0.03454096484735078,10.025849820467963,-0.008505862399264793,0.0051248013974275804,0.026614819946705223,1771668805.5685692
19751.867954935442,-0.10109573829642356,-0.014431290600420305,10.007217861091444,0.03446693540648692,0.0442889234567939,0.02070389706988606,1771668805.568678
14090.979310103625,-0.010943841446595855,0.0772962254011838,10.248281201058383,0.008796676650261893,0.15815052554058523,-0.01228494418584256,1771668805.5688589
6938.901703169495,-0.03489271636111344,0.05781560102270285,10.26671583631511,-0.052915197304127234,0.5122929619671182,-0.04337136590005593,1771668805.568995
20864.940332354974,1.958814659543531,-0.040435561097247136,11.529868118043568,-0.10787981519501962,1.604132373139546,0.11821344245752569,1771668805.569106
25986.945266753843,-0.5833834168170059,-0.10184813651823468,9.88536780692562,-0.2772248438073894,1.437353252348046,0.2518895774407624,1771668805.569213
14675.159641598444,-0.5831993638002494,-0.09204580291773445,9.898140625963155,-0.32383999026573107,1.1938404468054666,0.08715394529459561,1771668805.56932
5557.336406669688,-0.48951761648183345,-0.030927538310891733,10.392968022309596,-0.5002938970532832,1.0642797177812229,0.1740406528576496,1771668805.56943
19256.210681282875,-0.583555985066995,-0.20377660213214746,9.540234211172432,-0.4919579429679404,0.9730687978811355,0.1948065355388817,1771668805.569535
4927.293807630854,-0.11131827271254978,0.04275869992193334,9.926984429580546,-0.018300938514981914,-0.0034614712003709193,0.00022498322742417075,1771668805.539459
19304.15182263115,-0.029817921283271515,0.020045128300511705,9.938320845634268,0.053283223725900636,0.055833788179130296,0.025946621395319176,1771668805.53985
16851.47946387377,-0.021702966897259354,-0.0014044638203855357,9.900144101419105,0.0492391304012234,-0.007938797691904578,-0.014371285750681213,1771668805.540212
2340.9187711067443,-0.1030337942744269,0.08284129372157868,9.880561829483627,-0.015754132641522138,0.013299569275470473,-0.006929627304022495,1771668805.540589
10586.158004699359,-0.056436112065744934,-0.04207150745266605,9.936903889549855,0.029674786430946606,0.03760717906267428,0.042868625981070954,1771668805.540949
24043.27521604647,-0.08676675448844637,-0.006021973433165605,9.954224682554383,-0.00796230148418853,0.008667235399323552,0.013207074701417462,1771668805.541307
11478.213327542579,-0.08810344794467892,0.058954923259130036,9.931523146334975,0.010027200263764318,0.0007097209392584262,-0.013393862336020145,1771668805.5416892
1947.4252065366618,-0.09616589938010771,0.03205139198012338,9.87384753975083,0.013524105889461773,0.0232797811851553,-0.0034699794731539906,1771668805.542038
16315.712654116813,-0.13027486578286782,0.06629275465044887,9.960104203594266,-0.018045997460339584,0.02333735822284662,-0.027866157413296677,1771668805.5423949
20487.46833356726,-0.13468354285234913,0.0956793902912546,9.890958159481656,0.003987034678913682,0.008212521493449887,0.012826136477674447,1771668805.5427608
5988.361919157651,-0.10863494067306971,0.006851348094600559,9.926293260329246,0.0464363232495653,0.05237417986494841,-0.033944338581246375,1771668805.5430112
7622.550117960384,-0.13213783736819396,0.09474656495289094,9.876263933294267,0.031377125799273174,0.022189815203272442,0.007981405670887405,1771668805.543191
21975.50723903188,-0.11255308977791441,0.015209541259703311,9.936388119426885,-0.001918701507932104,0.0010354471972720913,-0.023848688102703505,1771668805.543387
14640.459755877635,-0.12835716716001558,0.04088351372979941,9.914400084732613,-0.0012142916512108738,0.021091357294312038,-0.025144405326348308,1771668805.543576
723.9862903336001,-0.05499943772491357,0.006740885736939196,9.902210311569416,0.04705455657242862,-0.03104907094299476,-0.01197521590324763,1771668805.5437498
12828.666860420122,-0.14019504512416742,0.08437884477893234,9.971138119661148,0.020468668513382474,-0.013657385537050225,-0.004185993080562027,1771668805.543933
23235.269004203623,-0.14619712154651068,0.08059475211945769,9.946084412155779,-0.016706211743324224,0.011454697645923145,0.02256704614265474,1771668805.544123
8979.697308828296,-0.1149352871353506,0.04457356050005901,9.949034071725336,-0.03270425649853604,0.018510181533671656,0.004465549163115478,1771668805.544301
3982.6771665483184,-0.11885518235056328,0.07546506909543324,9.90964365127216,0.0217742046445947,0.01625575552917803,0.0026799701327062807,1771668805.544478
18361.492806922022,-0.10179290888029045,0.09012180077100848,9.917195043075703,0.01563721258934511,-0.03495300878797588,-0.001280472450868126,1771668805.544742
17792.27686640028,-0.1291205672544368,0.040743152089311514,9.892608546908551,0.00013606585872072248,0.004982639228937524,0.004007942332266729,1771668805.5449688
3254.00345148589,-0.10624856102313386,0.052084792892756415,9.872647608411269,0.011276254861061707,0.00871138651597702,0.0010898852727188497,1771668805.545124
9608.125155142969,-0.12523237259234066,0.05565510299747248,9.868878074582945,0.016529948517373903,-0.008104838348771685,0.020457897452179737,1771668805.545291
23687.973070862885,-0.11419693422859258,0.0590168462740083,9.914882782604684,0.02618261247978333,-0.0012629755554606277,0.008805156597601522,1771668805.5454552
12333.001635303186,-0.13728665069663215,0.0169013798395776,9.931201985771287,-0.0002712212481417513,-0.008180894158943448,0.005544403344903594,1771668805.54561
1215.8350008346538,-0.09194300567373914,0.05999282127429345,9.928830024112836,0.038122225736620746,0.017486236468296053,0.015837718695984597,1771668805.545759
15306.175626018705,-0.09704575435726129,0.049257533934641204,9.949563208339757,0.012500079723560965,0.016753570622162893,0.01830866514330664,1771668805.5459242
21408.212457621812,-0.056546584708851017,0.08516487127312632,9.881354774451987,0.024867924091011993,-0.024044473479249682,-0.0009708643910333086,1771668805.546079
6931.013466388305,-0.07137931966298298,0.06475189688666086,9.927631826550227,-0.0005582573122626505,-0.01383556177447045,-0.023578975218364173,1771668805.546231
6680.804563491618,-0.10705847839755321,0.03369855024358208,9.884359771908416,-0.0028304243554639614,0.022773984111781508,0.02235256428167037,1771668805.5463831
20958.37606893554,-0.08396593963779264,0.032121801448728844,9.907012745870873,0.023848207543375327,0.04542400520138776,-5.549615047934533e-05,1771668805.5465732
15574.56606158219,-0.04053548959270527,0.08245099349236437,9.88136214828781,-0.008786043332924392,-0.0032835122027631914,-0.012091636350340143,1771668805.546726
1203.4137795150218,-0.04680764224279374,0.08020650747137659,9.91458920672884,0.00764964782880267,0.0084710949044399,0.017174821781284846,1771668805.546878
11932.826516040457,-0.07082138273672199,0.04612931570623304,9.908549607421994,-0.017093398967866665,0.03796926182684061,-0.008666009601107022,1771668805.547049
23799.714593345347,-0.07005742233016907,0.021346867532742255,9.883928976034214,-0.002936818839843599,0.0019020336179943278,-0.01646106155148569,1771668805.547204
9936.686679859306,-0.1420950544055733,0.012183534669646726,9.890781910998323,0.003616926310345096,0.003642352583393331,-0.034242655316688145,1771668805.5473568
3072.450588413577,-0.18636092121689105,0.01323168824872384,9.891636244584648,0.029928184969800008,-0.008831528304443781,0.005572448392817432,1771668805.547509
17445.54384568924,-0.07236236540542083,-0.03723312873689481,9.959710977364093,0.01886023641235031,0.031655795813495036,-0.01597415860691609,1771668805.547677
18739.705915984236,-0.10447914764132209,0.0207558467368911,9.929857173323255,-0.010343455977320767,-0.020494758226221387,-0.021125750017615134,1771668805.5478332
4211.879765363177,-0.13319864613042776,-0.03154535392597896,9.911948193030312,-0.021111742699101585,0.011397525037795937,-0.028885128832543048,1771668805.54799
8673.103053376339,-0.1669436436963948,0.06107509908531048,9.937977896483938,-0.0068580451336989826,0.04574083023050402,-0.012052989105561124,1771668805.54817
23078.64720041086,-0.10791926054913109,0.047738937607530375,9.972160756789451,0.00897155376923366,0.005770920439677178,0.020949415774424975,1771668805.548337
13265.127571186058,-0.10645593922913552,0.02452904885743189,9.936846322086467,0.004865678983306979,0.04413086923935298,0.009364482776449867,1771668805.5484958
817.5582139945237,-0.10523608578688348,0.07262895434094661,9.852284411101953,-0.01899056244153305,0.020249804121321314,0.01620750199272954,1771668805.54865
14335.777753356357,-0.1235667644341771,0.0642920294714547,9.934491149364312,-0.022802249983726132,0.00529105071135785,-0.027195822040737918,1771668805.5488288
22277.33664987022,-0.09463317646624611,0.052502047080661945,9.903307383376196,0.031448131103004165,-0.010915006457509781,-0.010787609194724887,1771668805.5489678
7847.962269981532,-0.09422524665967696,0.0874299211948256,9.92092235722736,-0.003995237866385525,0.0068045759750687395,-0.0316122005042404,1771668805.5491042
5664.635009667048,-0.12746269565290824,0.0178724904140442,9.920914188825298,0.019391495314932096,0.023017749640229734,0.014615101315038386,1771668805.549249
20007.07274656939,-0.12506361902635665,0.03286625917490712,9.972704866109092,0.013801394590617317,0.0024902248123200156,-0.023380783447413973,1771668805.5493948
16622.268386490414,-0.10312550654118251,0.051579373283624434,9.917737678847764,0.005237971573590415,0.011799909506469574,-0.020785011384614298,1771668805.54953
2036.2525117202651,-0.08027061957134698,0.015095943738035507,9.937558220505304,0.00947178895031554,0.030090519891059004,-0.007680329289308426,1771668805.5496871
11092.32961432997,-0.08500175808660405,0.06384389625620132,9.959058698831438,-0.0015059890190713759,0.05140555232945596,-0.011728543111331525,1771668805.549898
24018.45295723133,-0.1003351134934833,0.004056871732600234,9.937017948478973,0.016233353763416142,0.014336330802473892,-0.0124236780479247,1771668805.55005
10882.206907933367,-0.07860993174047684,0.016264156291972823,9.94065764504986,0.026470024244039346,0.017915108426572294,0.015632504161506425,1771668805.550205
2181.4334874364554,-0.08819487172439427,0.0248768359855332,9.848892450423294,0.007529767505573811,0.018242299831208432,0.0040281870376523785,1771668805.550346
16513.3719844135,-0.10368699216506683,0.03507182748767485,9.914777818985394,0.012221236396721243,-0.008134329337654286,0.016505113976846085,1771668805.550488
19722.467570610712,-0.12185632714933832,0.043941293369441366,9.918719189607685,-0.008234006609712774,0.05297881440792413,-0.01518599961442231,1771668805.550632
5215.718714698444,-0.1275467446749762,0.04806839060724132,9.928364709310832,0.035743492143430866,0.03664684732615958,0.01717317689369497,1771668805.550883
7880.38291703612,-0.10745293742264048,0.037014281596048124,9.940264943037599,-0.026324201283896002,-0.002989922125903942,-0.006597128803102403,1771668805.551195
22236.25844989422,-0.06542343611866118,0.0008997678299063881,9.944205887882097,0.006344892869824172,0.05604565888088657,0.031752488425149536,1771668805.551369
14089.374102576394,-0.12613978777857338,0.008836816145170604,9.859632675147218,0.019998613077389732,0.026716388199921302,-0.02119987819873325,1771668805.551577
645.607387073521,-0.13839228157300756,0.04286826513881728,9.850560208750862,-0.014200570729890501,0.01962863117610591,0.008942357398011058,1771668805.551733
13294.751295551498,-0.12031089258788347,0.01169905868321072,9.87610781157475,0.007956177872997417,0.02664916554916237,0.017986147918959413,1771668805.551899
23008.919124293225,-0.10315188135692467,0.03271695937539731,9.940088269066504,0.005491516542998255,-0.0041768802222512105,-0.025684488469296832,1771668805.552068
8738.053268848615,-0.12699636406591874,0.016626055135791653,9.946649305557917,0.02372799074668233,0.04372592335379943,0.02704862113227729,1771668805.5522282
4699.992264854044,-0.13397028232997585,-0.017843524208816536,9.949749922601884,0.04402278570687436,0.008319497570816113,-0.011995509230133088,1771668805.55239
19128.39576354459,-0.1417825394300104,0.017737131289624924,9.881554527641129,0.0034023184499998188,0.030168749556354634,-0.03984523390249933,1771668805.552551
17696.7424608596,-0.05602594334577029,0.03851434538427667,9.9639685396045,-0.0047826155748905514,-0.015496462018124692,-0.0017389327896102503,1771668805.552711
3024.741195196905,-0.04531445803477312,0.02185429374407164,9.888178493717101,-0.004653168724735986,0.004931895532045297,-0.02352452846600057,1771668805.552842
10240.422353006239,-0.0732138404956295,0.06620751081902124,9.95669544068964,0.0013835009512488314,-0.011862740056597654,-0.0014291455581844114,1771668805.552984
23910.525211454868,-0.11705440236947313,0.05965323446295595,9.896988897771964,0.02789555296605891,-0.002378300020056549,-0.01809410714092669,1771668805.553247
11839.221534816033,-0.08303900182923817,0.07950815667598138,9.959276012908475,-0.006866730145738455,0.007623702248890291,0.024702047326268302,1771668805.553442
1466.0581505086564,-0.09411655852941436,0.10525012870553635,9.871682383430601,0.029409594016422246,-0.0016139067221413658,0.007485520692507363,1771668805.5535738
15633.774486374597,-0.054685314056581114,0.06252855978844762,9.879766713408332,0.023807257513013755,-0.010466203587913376,0.027451328272036404,1771668805.553712
20713.86203461946,-0.08806253832309194,0.05128875182391593,9.853230049299546,0.040619043966895,0.0018856222405925689,0.006727728789389333,1771668805.553857
6174.617534065285,-0.11764994064032823,0.048858664566652256,9.897715525018222,0.03922353735799244,0.0009498544962199866,0.023686163290335085,1771668805.553996
6887.106111058692,-0.09667338093947554,0.011915687741517803,9.900575233430486,0.019727466938581083,0.022815037405380507,-0.016402938924399382,1771668805.5541272
21224.812296483917,-0.031040978939510553,0.027853709853741224,9.88457017381735,0.04157301334097178,0.004784099422302941,-0.008592155698116204,1771668805.554324
14934.611955874958,-0.07364693182350486,0.11893695656547056,9.919092577946596,0.005899762230017939,0.014835604799764805,0.01855494871113862,1771668805.554458
908.243044261486,-0.045366667114305495,0.08035897519280655,9.876405143379868,0.002399255027840218,0.03192213821206468,-0.011001454105214184,1771668805.554589
12421.835157294394,-0.057666020679979876,0.04507854048106389,9.944985815615718,0.0005584499144095333,0.04082641575892949,-0.016126795456083236,1771668805.554736
23678.40020468723,-0.09357442138557276,0.0031674314627835962,9.922715913731938,0.06244007283153314,0.005799039754567774,0.0258006738593053,1771668805.55488
9769.542047191104,-0.10046318196763843,0.04224545757171268,9.931090787980093,0.01265659558306726,0.014243957837077636,0.012762317076090336,1771668805.555016
3781.1863614454783,-0.14370364918683887,-0.029743190411648385,9.94638269580952,0.002084781090437374,0.011301797915308684,0.019183283707074474,1771668805.5551848
18185.744973039582,-0.08709672194560175,0.04720703176084673,9.898463727206849,0.01867438856575581,0.02945301493813709,0.03663779620357306,1771668805.55533
18588.758594477615,-0.1185869420670651,0.02584986811190594,9.908476480710188,0.026732774689296145,-0.01832538524942074,-0.0042709859664540484,1771668805.555479
4004.6386280226893,-0.08149899720192949,0.004239906103896292,9.889758595338654,-0.010589163673209657,0.028920658933288945,-0.024285395066789593,1771668805.555608
9326.391260136344,-0.12884968985674475,0.03993813890253515,9.968808678123038,0.01721449488983426,0.029088223219317047,-0.0039393892921841785,1771668805.555753
23465.44439656357,-0.10789583147256775,0.05585948446356861,9.966955307311304,0.04926487893589478,-0.01875815996537724,0.004911164287816036,1771668805.555894
12845.886415223187,-0.051340687970681975,0.006572918215315206,9.858053746443655,0.02283072711542989,0.04845516212771893,0.008306118017378135,1771668805.5560288
